------------ Data File Created By ActiGraph GT3X+ ActiLife v6.11.5 Firmware v4.4.0 date format M/d/yyyy at 30 Hz  Filter Normal -----------
Serial Number: MAT2C47090050
Start Time 11:08:00
Start Date 12/17/2014
Epoch Period (hh:mm:ss) 00:00:00
Download Time 11:08:59
Download Date 12/17/2014
Current Memory Address: 0
Current Battery Voltage: 4.19     Mode = 12
--------------------------------------------------
Timestamp,Accelerometer X,Accelerometer Y,Accelerometer Z
12/17/2014 11:08:00.003,0.87,-0.192,0.126
12/17/2014 11:08:00.038,0.113,-0.004,0.035
12/17/2014 11:08:00.071,-0.351,0.073,-0.069
12/17/2014 11:08:00.104,-0.046,0.239,-0.065
12/17/2014 11:08:00.138,-0.172,-0.141,-0.16
12/17/2014 11:08:00.171,0.163,0.517,0.87
12/17/2014 11:08:00.203,1.494,0.222,0.16
12/17/2014 11:08:00.237,3,1.103,1.42
12/17/2014 11:08:00.270,2.046,0.312,-0.113
12/17/2014 11:08:00.303,1.854,-0.115,0.147
12/17/2014 11:08:00.338,1.213,0.239,0.026
12/17/2014 11:08:00.371,0.142,0.423,-0.342
12/17/2014 11:08:00.404,-0.649,0.321,0.446
12/17/2014 11:08:00.437,-0.686,-0.128,-0.199
12/17/2014 11:08:00.470,0.008,-0.239,0.035
12/17/2014 11:08:00.503,0.824,0.393,-0.221
12/17/2014 11:08:00.538,0.799,0.658,1.022
12/17/2014 11:08:00.571,1.335,-0.021,-0.442
12/17/2014 11:08:00.604,1.854,0.547,-0.199
12/17/2014 11:08:00.638,1.912,0.791,-0.541
12/17/2014 11:08:00.671,2.46,0.56,-0.411
12/17/2014 11:08:00.703,1.841,-0.316,-0.152
12/17/2014 11:08:00.737,0.711,-0.513,-0.13
12/17/2014 11:08:00.770,-0.234,0.111,0.398
12/17/2014 11:08:00.803,-0.038,0.209,-0.052
12/17/2014 11:08:00.838,0.067,0.35,-0.052
12/17/2014 11:08:00.871,-0.054,0.128,-0.026
12/17/2014 11:08:00.904,0.268,0.581,0.974
12/17/2014 11:08:00.937,1.339,0.291,0.117
12/17/2014 11:08:00.970,3,1.086,1.502
12/17/2014 11:08:01.003,2.067,-0.004,-0.195
12/17/2014 11:08:01.038,1.854,-0.043,0.152
12/17/2014 11:08:01.071,1.008,0.423,-0.052
12/17/2014 11:08:01.104,0.318,0.44,-0.182
12/17/2014 11:08:01.138,-0.414,0.013,-0.061
12/17/2014 11:08:01.171,-0.565,-0.073,0.065
12/17/2014 11:08:01.203,0.142,-0.128,-0.009
12/17/2014 11:08:01.237,0.749,0.38,-0.199
12/17/2014 11:08:01.270,0.598,0.5,0.81
12/17/2014 11:08:01.303,1.912,0.081,-0.212
12/17/2014 11:08:01.338,2.259,0.607,-0.113
12/17/2014 11:08:01.371,2.071,0.765,-0.364
12/17/2014 11:08:01.404,2.444,0.021,0
12/17/2014 11:08:01.437,1.289,-0.59,0.134
12/17/2014 11:08:01.470,0.234,-0.124,0.117
12/17/2014 11:08:01.503,-0.305,0.252,-0.121
12/17/2014 11:08:01.538,-0.046,0.359,0
12/17/2014 11:08:01.571,-0.268,0.098,-0.035
12/17/2014 11:08:01.604,-0.096,0.192,0.186
12/17/2014 11:08:01.638,1.398,1.137,0.325
12/17/2014 11:08:01.671,3,1.171,0.117
12/17/2014 11:08:01.703,3,0.329,0.221
12/17/2014 11:08:01.737,1.958,-0.034,-0.061
12/17/2014 11:08:01.770,1.335,0.269,-0.065
12/17/2014 11:08:01.803,0.406,0.449,-0.182
12/17/2014 11:08:01.838,-0.243,0.111,-0.229
12/17/2014 11:08:01.871,-0.828,-0.021,-0.009
12/17/2014 11:08:01.904,-0.046,-0.192,0.065
12/17/2014 11:08:01.937,0.427,0.269,-0.303
12/17/2014 11:08:01.970,0.854,0.697,0.991
12/17/2014 11:08:02.003,2.071,-0.291,0.173
12/17/2014 11:08:02.038,2.268,0.372,-0.026
12/17/2014 11:08:02.071,2.096,0.838,-0.424
12/17/2014 11:08:02.104,2.147,0.282,-0.186
12/17/2014 11:08:02.138,1.502,-0.65,0.126
12/17/2014 11:08:02.171,0.259,-0.35,0.087
12/17/2014 11:08:02.203,-0.389,0.35,0.065
12/17/2014 11:08:02.237,-0.192,0.342,-0.121
12/17/2014 11:08:02.270,-0.243,0.145,0
12/17/2014 11:08:02.303,-0.1,0.329,0.277
12/17/2014 11:08:02.338,1.59,1.094,0.346
12/17/2014 11:08:02.371,3,1.15,0.134
12/17/2014 11:08:02.404,2.59,0.44,0.03
12/17/2014 11:08:02.437,1.803,-0.321,-0.082
12/17/2014 11:08:02.470,1.502,0.141,0.017
12/17/2014 11:08:02.503,0.728,0.624,-0.242
12/17/2014 11:08:02.538,-0.192,0.15,-0.16
12/17/2014 11:08:02.571,-0.653,-0.073,0.056
12/17/2014 11:08:02.604,-0.222,-0.145,0.048
12/17/2014 11:08:02.638,0.155,0.188,-0.303
12/17/2014 11:08:02.671,0.736,0.423,0.957
12/17/2014 11:08:02.703,1.67,-0.321,-0.507
12/17/2014 11:08:02.737,2.347,0.201,0.113
12/17/2014 11:08:02.770,1.95,0.765,-0.351
12/17/2014 11:08:02.803,2.163,0.427,-0.147
12/17/2014 11:08:02.838,1.883,-0.594,0.147
12/17/2014 11:08:02.871,0.268,-0.457,0.074
12/17/2014 11:08:02.904,-0.243,0.252,0.134
12/17/2014 11:08:02.937,-0.067,0.359,-0.043
12/17/2014 11:08:02.970,-0.201,0.132,-0.052
12/17/2014 11:08:03.003,-0.113,0.132,0.113
12/17/2014 11:08:03.038,1.314,1.034,0.437
12/17/2014 11:08:03.071,3,1.184,0.186
12/17/2014 11:08:03.104,2.979,0.598,0.416
12/17/2014 11:08:03.138,1.841,-0.15,-0.091
12/17/2014 11:08:03.171,1.456,-0.111,0.004
12/17/2014 11:08:03.203,0.598,0.44,-0.212
12/17/2014 11:08:03.237,-0.163,0.291,-0.182
12/17/2014 11:08:03.270,-0.766,0.026,-0.13
12/17/2014 11:08:03.303,-0.025,-0.021,0.004
12/17/2014 11:08:03.338,0.155,0.295,-0.104
12/17/2014 11:08:03.371,0.531,0.295,0.693
12/17/2014 11:08:03.404,1.569,0.043,-0.563
12/17/2014 11:08:03.437,2.193,0.282,-0.039
12/17/2014 11:08:03.470,2.034,0.62,-0.528
12/17/2014 11:08:03.503,2.222,0.107,-0.303
12/17/2014 11:08:03.538,1.854,-0.56,0.017
12/17/2014 11:08:03.571,0.435,-0.162,0.126
12/17/2014 11:08:03.604,-0.167,0.346,0.195
12/17/2014 11:08:03.638,-0.259,0.137,0.026
12/17/2014 11:08:03.671,-0.406,0.098,-0.039
12/17/2014 11:08:03.703,-0.201,0.051,0.195
12/17/2014 11:08:03.737,1.213,0.94,0.589
12/17/2014 11:08:03.770,3,1.479,0.004
12/17/2014 11:08:03.803,2.774,0.624,0.346
12/17/2014 11:08:03.838,1.929,-0.128,-0.061
12/17/2014 11:08:03.871,1.598,-0.167,-0.1
12/17/2014 11:08:03.904,0.318,0.137,-0.351
12/17/2014 11:08:03.937,-0.264,0.389,-0.429
12/17/2014 11:08:03.970,-0.619,0.209,0.065
12/17/2014 11:08:04.003,-0.213,-0.231,0
12/17/2014 11:08:04.038,0.607,0.265,-0.242
12/17/2014 11:08:04.071,0.523,0.607,0.978
12/17/2014 11:08:04.104,1.762,0.073,0.065
12/17/2014 11:08:04.138,2.657,0.132,-0.251
12/17/2014 11:08:04.171,2.716,0.688,-0.165
12/17/2014 11:08:04.203,2.172,0.132,-0.022
12/17/2014 11:08:04.237,0.979,0.167,0.156
12/17/2014 11:08:04.270,0.297,0.073,0.338
12/17/2014 11:08:04.303,-0.268,0.107,0.126
12/17/2014 11:08:04.338,-0.126,0.312,0.134
12/17/2014 11:08:04.371,-0.226,0.239,0.074
12/17/2014 11:08:04.404,-0.226,0.231,0.398
12/17/2014 11:08:04.437,1.41,1.419,0.368
12/17/2014 11:08:04.470,3,1.479,0.143
12/17/2014 11:08:04.503,3,-0.068,0.346
12/17/2014 11:08:04.538,2.126,-0.41,0
12/17/2014 11:08:04.571,1.368,-0.141,0
12/17/2014 11:08:04.604,0.523,0.321,-0.32
12/17/2014 11:08:04.638,-0.561,0.487,0.195
12/17/2014 11:08:04.671,-0.552,0.252,-0.113
12/17/2014 11:08:04.703,-0.347,-0.094,0.277
12/17/2014 11:08:04.737,0.569,0.201,-0.229
12/17/2014 11:08:04.770,0.766,0.517,0.952
12/17/2014 11:08:04.803,1.762,0.141,0.095
12/17/2014 11:08:04.838,2.703,-0.132,-0.221
12/17/2014 11:08:04.871,2.753,0.449,0.048
12/17/2014 11:08:04.904,2.155,0.231,-0.121
12/17/2014 11:08:04.937,0.929,0.132,0.156
12/17/2014 11:08:04.970,0.297,-0.043,0.351
12/17/2014 11:08:05.003,-0.222,0.004,0.325
12/17/2014 11:08:05.038,-0.063,0.419,0.268
12/17/2014 11:08:05.071,-0.326,0.209,0.026
12/17/2014 11:08:05.104,-0.213,0.603,0.758
12/17/2014 11:08:05.138,1.569,1.312,0.225
12/17/2014 11:08:05.171,3,0.692,0.9
12/17/2014 11:08:05.203,2.511,-0.167,0.065
12/17/2014 11:08:05.237,1.427,-0.705,0.048
12/17/2014 11:08:05.270,1.134,-0.021,0.048
12/17/2014 11:08:05.303,0.038,0.35,-0.563
12/17/2014 11:08:05.338,-0.502,0.171,-0.143
12/17/2014 11:08:05.371,-0.293,-0.034,-0.009
12/17/2014 11:08:05.404,0.067,0.107,-0.645
12/17/2014 11:08:05.437,0.774,0.483,0.355
12/17/2014 11:08:05.470,1.854,0.231,-0.736
12/17/2014 11:08:05.503,2.289,-0.359,-0.121
12/17/2014 11:08:05.538,2.268,0.466,-0.242
12/17/2014 11:08:05.571,1.967,0.44,-0.225
12/17/2014 11:08:05.604,2.025,0.013,0.351
12/17/2014 11:08:05.638,0.686,0.064,0.004
12/17/2014 11:08:05.671,-0.297,-0.094,0.212
12/17/2014 11:08:05.704,-0.201,0.017,0.074
12/17/2014 11:08:05.737,-0.155,0.192,0.074
12/17/2014 11:08:05.770,-0.163,-0.004,0.126
12/17/2014 11:08:05.805,0.594,1.124,1.191
12/17/2014 11:08:05.838,3,1.154,0.277
12/17/2014 11:08:05.871,3,0.568,1.026
12/17/2014 11:08:05.904,1.883,-0.124,-0.039
12/17/2014 11:08:05.937,1.477,-0.406,-0.022
12/17/2014 11:08:05.970,0.636,0.124,-0.312
12/17/2014 11:08:06.005,-0.561,0.393,0.658
12/17/2014 11:08:06.038,-0.72,0.256,-0.303
12/17/2014 11:08:06.071,0.05,-0.103,0.208
12/17/2014 11:08:06.105,0.134,0.103,-0.312
12/17/2014 11:08:06.138,0.649,0.145,0.368
12/17/2014 11:08:06.171,1.377,0.201,-0.442
12/17/2014 11:08:06.204,2.72,-0.201,-0.056
12/17/2014 11:08:06.237,2.678,0.855,-0.346
12/17/2014 11:08:06.270,2.113,0.577,-0.303
12/17/2014 11:08:06.305,0.833,0.017,0.177
12/17/2014 11:08:06.338,0.23,0.013,0.667
12/17/2014 11:08:06.371,-0.138,-0.034,0.225
12/17/2014 11:08:06.404,-0.184,0.231,-0.004
12/17/2014 11:08:06.437,-0.49,0.192,0.035
12/17/2014 11:08:06.470,-0.155,0.124,0.377
12/17/2014 11:08:06.505,1.54,1.231,0.177
12/17/2014 11:08:06.538,3,1.838,0.788
12/17/2014 11:08:06.571,2.795,-0.261,0.216
12/17/2014 11:08:06.605,1.795,-0.56,-0.03
12/17/2014 11:08:06.638,0.862,0.312,0.013
12/17/2014 11:08:06.671,-0.109,0.667,-0.961
12/17/2014 11:08:06.704,-0.326,0.261,-0.316
12/17/2014 11:08:06.737,0.067,0.073,-0.009
12/17/2014 11:08:06.770,-0.234,-0.15,-0.13
12/17/2014 11:08:06.805,0.795,-0.073,0.216
12/17/2014 11:08:06.838,1.347,0.346,-0.364
12/17/2014 11:08:06.871,2.176,-0.038,-0.074
12/17/2014 11:08:06.904,2.406,0.397,-0.03
12/17/2014 11:08:06.937,2.473,0.795,-0.381
12/17/2014 11:08:06.970,2.008,-0.064,-0.065
12/17/2014 11:08:07.005,0.31,-0.192,-0.022
12/17/2014 11:08:07.038,-0.054,0.162,0.424
12/17/2014 11:08:07.071,-0.251,0.231,0.32
12/17/2014 11:08:07.105,-0.192,0.547,0.156
12/17/2014 11:08:07.138,-0.213,0.222,0.234
12/17/2014 11:08:07.171,0.339,1.026,1.191
12/17/2014 11:08:07.204,2.766,0.974,0.134
12/17/2014 11:08:07.237,3,0.231,0.879
12/17/2014 11:08:07.270,2.008,-0.419,-0.286
12/17/2014 11:08:07.305,1.247,-0.517,-0.082
12/17/2014 11:08:07.338,0.782,0.393,-0.381
12/17/2014 11:08:07.371,-0.582,0.333,0.489
12/17/2014 11:08:07.404,-0.699,0.239,-0.242
12/17/2014 11:08:07.437,-0.172,-0.073,0.13
12/17/2014 11:08:07.470,0.464,0.192,-0.091
12/17/2014 11:08:07.505,-0.201,0.239,0.727
12/17/2014 11:08:07.538,1.603,0.611,-0.286
12/17/2014 11:08:07.571,2.845,-0.372,-0.121
12/17/2014 11:08:07.605,2.377,0.449,-0.463
12/17/2014 11:08:07.638,2.096,0.252,-0.182
12/17/2014 11:08:07.671,0.678,-0.043,-0.242
12/17/2014 11:08:07.704,-0.046,0.111,0.424
12/17/2014 11:08:07.737,-0.251,0.111,0.087
12/17/2014 11:08:07.770,-0.126,0.312,0.03
12/17/2014 11:08:07.805,-0.142,0.252,0.104
12/17/2014 11:08:07.838,0.071,0.568,0.667
12/17/2014 11:08:07.871,2.569,0.979,0.377
12/17/2014 11:08:07.904,3,0.821,1.191
12/17/2014 11:08:07.937,2.28,-0.201,-0.13
12/17/2014 11:08:07.970,1.473,-0.637,0.165
12/17/2014 11:08:08.005,0.791,0.209,-0.156
12/17/2014 11:08:08.038,-0.669,0.56,0.091
12/17/2014 11:08:08.071,-0.54,0.043,-0.576
12/17/2014 11:08:08.105,-0.527,-0.265,0.645
12/17/2014 11:08:08.138,1.067,0.581,-0.753
12/17/2014 11:08:08.171,0.339,0.081,0.216
12/17/2014 11:08:08.204,1.824,0.269,-0.797
12/17/2014 11:08:08.237,2.381,-0.363,0.104
12/17/2014 11:08:08.270,2.531,0.504,-0.147
12/17/2014 11:08:08.305,2.209,0.658,-0.242
12/17/2014 11:08:08.338,1.54,0.043,0.039
12/17/2014 11:08:08.371,0.54,0.124,0.429
12/17/2014 11:08:08.404,-0.084,-0.043,0.437
12/17/2014 11:08:08.437,-0.096,0.5,0.074
12/17/2014 11:08:08.470,-0.473,0.291,-0.091
12/17/2014 11:08:08.505,-0.427,-0.192,0.281
12/17/2014 11:08:08.538,1.268,0.829,0.355
12/17/2014 11:08:08.571,3,1.41,-0.039
12/17/2014 11:08:08.605,3,-0.004,0.697
12/17/2014 11:08:08.638,1.812,-0.444,-0.286
12/17/2014 11:08:08.671,1.251,0.239,0.035
12/17/2014 11:08:08.704,0.322,0.705,-0.749
12/17/2014 11:08:08.737,-0.406,0.534,0.017
12/17/2014 11:08:08.770,-0.142,0.312,-0.065
12/17/2014 11:08:08.805,-0.502,-0.004,0.1
12/17/2014 11:08:08.838,0.485,-0.043,0.017
12/17/2014 11:08:08.871,1.569,0.201,-0.468
12/17/2014 11:08:08.904,2.473,-0.397,-0.082
12/17/2014 11:08:08.937,2.28,0.594,-0.333
12/17/2014 11:08:08.970,2.23,0.35,-0.468
12/17/2014 11:08:09.005,2.339,-0.449,0.195
12/17/2014 11:08:09.038,0.669,0.419,0.459
12/17/2014 11:08:09.071,-0.23,0.222,0.55
12/17/2014 11:08:09.105,0.075,0.363,0.177
12/17/2014 11:08:09.138,-0.31,0.419,0.048
12/17/2014 11:08:09.171,-0.23,0.312,0.446
12/17/2014 11:08:09.204,0.716,0.714,0.476
12/17/2014 11:08:09.237,2.833,1.295,-0.061
12/17/2014 11:08:09.270,3,0.167,0.978
12/17/2014 11:08:09.305,2.038,-0.59,-0.242
12/17/2014 11:08:09.338,1.234,-0.081,0.035
12/17/2014 11:08:09.371,-0.046,0.568,-0.303
12/17/2014 11:08:09.404,-0.096,0.35,-0.372
12/17/2014 11:08:09.437,-0.08,0.239,0.117
12/17/2014 11:08:09.470,-0.356,0.081,-0.242
12/17/2014 11:08:09.505,0.657,0.073,0.225
12/17/2014 11:08:09.538,1.448,0.449,-0.216
12/17/2014 11:08:09.571,2.239,-0.141,-0.221
12/17/2014 11:08:09.605,2.347,0.269,-0.199
12/17/2014 11:08:09.638,2.067,0.201,-0.433
12/17/2014 11:08:09.671,2.155,-0.299,0.147
12/17/2014 11:08:09.704,0.749,-0.021,0.377
12/17/2014 11:08:09.737,-0.213,0.299,0.342
12/17/2014 11:08:09.770,-0.222,0.201,0.134
12/17/2014 11:08:09.805,-0.213,0.316,0.238
12/17/2014 11:08:09.838,0.042,0.5,0.589
12/17/2014 11:08:09.871,1.259,0.996,0.532
12/17/2014 11:08:09.904,3,1.432,1.312
12/17/2014 11:08:09.937,2.398,-0.184,0.095
12/17/2014 11:08:09.970,2.017,-0.568,0.074
12/17/2014 11:08:10.005,1.113,0.073,0.035
12/17/2014 11:08:10.038,-0.28,0.577,-1.026
12/17/2014 11:08:10.071,-0.766,0.192,-0.485
12/17/2014 11:08:10.105,0.192,-0.013,-0.104
12/17/2014 11:08:10.138,0.063,-0.064,-0.273
12/17/2014 11:08:10.171,0.213,0.034,0.177
12/17/2014 11:08:10.204,1.967,0.838,-0.632
12/17/2014 11:08:10.237,2.494,-0.697,0.1
12/17/2014 11:08:10.270,2.172,0.628,0.022
12/17/2014 11:08:10.305,2.268,0.906,-0.13
12/17/2014 11:08:10.338,1.603,0.038,0.104
12/17/2014 11:08:10.371,0.406,0.252,0.55
12/17/2014 11:08:10.404,-0.025,0.038,0.286
12/17/2014 11:08:10.437,-0.067,0.389,0.134
12/17/2014 11:08:10.470,-0.464,0.252,0.017
12/17/2014 11:08:10.505,-0.268,-0.064,0.385
12/17/2014 11:08:10.538,1.264,0.581,0.316
12/17/2014 11:08:10.571,3,1.748,0.195
12/17/2014 11:08:10.605,3,0.286,0.476
12/17/2014 11:08:10.638,1.833,-0.35,-0.247
12/17/2014 11:08:10.671,1.268,0.124,0.065
12/17/2014 11:08:10.704,-0.067,0.765,-0.788
12/17/2014 11:08:10.737,-0.54,0.47,-0.251
12/17/2014 11:08:10.770,0.289,0.299,0.104
12/17/2014 11:08:10.805,-0.59,-0.192,-0.091
12/17/2014 11:08:10.838,0.423,-0.051,-0.022
12/17/2014 11:08:10.871,1.724,0.517,-0.563
12/17/2014 11:08:10.904,2.686,-0.244,-0.091
12/17/2014 11:08:10.937,2.67,0.466,-0.03
12/17/2014 11:08:10.970,1.887,0.449,-0.424
12/17/2014 11:08:11.005,1.1,0.043,0.32
12/17/2014 11:08:11.038,0.385,0.15,0.758
12/17/2014 11:08:11.071,-0.105,-0.034,0.29
12/17/2014 11:08:11.105,0.017,0.201,0.195
12/17/2014 11:08:11.138,-0.184,0.261,0.208
12/17/2014 11:08:11.171,-0.142,0.192,0.364
12/17/2014 11:08:11.204,1.264,0.915,0.364
12/17/2014 11:08:11.237,3,1.786,0.537
12/17/2014 11:08:11.270,3,-0.192,0.476
12/17/2014 11:08:11.305,1.941,-0.654,-0.1
12/17/2014 11:08:11.338,0.921,0.222,0.009
12/17/2014 11:08:11.371,-0.435,0.983,0.255
12/17/2014 11:08:11.404,-0.598,0.41,-0.723
12/17/2014 11:08:11.437,0.289,0.209,0.052
12/17/2014 11:08:11.470,-0.339,0.004,0
12/17/2014 11:08:11.505,1.251,-0.141,-0.818
12/17/2014 11:08:11.538,2.28,0.795,-0.481
12/17/2014 11:08:11.571,2.527,-0.68,0.225
12/17/2014 11:08:11.605,2.891,0.312,0.268
12/17/2014 11:08:11.638,2.452,0.457,-0.351
12/17/2014 11:08:11.671,0.649,0.021,0.727
12/17/2014 11:08:11.704,0.096,0.068,0.52
12/17/2014 11:08:11.737,-0.427,0.013,0.212
12/17/2014 11:08:11.770,0.096,0.209,-0.009
12/17/2014 11:08:11.805,-0.251,0.188,0.065
12/17/2014 11:08:11.838,-0.004,0.004,0.355
12/17/2014 11:08:11.871,0.318,0.983,1.351
12/17/2014 11:08:11.904,3,1.449,0.355
12/17/2014 11:08:11.937,3,0.59,1.078
12/17/2014 11:08:11.970,2.038,-0.551,0.074
12/17/2014 11:08:12.005,1.259,-0.235,0.017
12/17/2014 11:08:12.038,-0.326,0.517,0.251
12/17/2014 11:08:12.071,-0.699,0.034,-0.55
12/17/2014 11:08:12.105,-0.268,0.115,0.095
12/17/2014 11:08:12.138,-0.435,-0.051,0.035
12/17/2014 11:08:12.171,0.795,-0.081,-0.121
12/17/2014 11:08:12.204,0.628,0.846,0.788
12/17/2014 11:08:12.237,2.372,0.372,0
12/17/2014 11:08:12.270,3,0.457,0.004
12/17/2014 11:08:12.305,2.017,-0.209,-0.463
12/17/2014 11:08:12.338,1.41,0.132,0.632
12/17/2014 11:08:12.371,0.557,0.124,0.576
12/17/2014 11:08:12.404,-0.385,-0.004,0.268
12/17/2014 11:08:12.437,-0.201,0.051,0.074
12/17/2014 11:08:12.470,-0.456,0.124,0.143
12/17/2014 11:08:12.505,-0.021,0.111,0.268
12/17/2014 11:08:12.538,0.636,1.201,1.39
12/17/2014 11:08:12.571,3,1.774,0.619
12/17/2014 11:08:12.605,3,0.094,0.576
12/17/2014 11:08:12.638,2.113,-0.59,0.022
12/17/2014 11:08:12.671,0.996,0.338,-0.13
12/17/2014 11:08:12.704,-0.598,0.526,0.758
12/17/2014 11:08:12.737,-0.803,0.547,-0.567
12/17/2014 11:08:12.770,0.561,-0.192,-0.242
12/17/2014 11:08:12.805,-0.305,-0.269,0.247
12/17/2014 11:08:12.838,1.096,-0.299,-0.805
12/17/2014 11:08:12.871,1.774,1.133,-0.121
12/17/2014 11:08:12.904,2.502,-0.051,0.065
12/17/2014 11:08:12.937,2.95,0.269,0.087
12/17/2014 11:08:12.970,2.569,0.316,-0.524
12/17/2014 11:08:13.005,0.749,0.547,-0.424
12/17/2014 11:08:13.038,0.142,0.329,0.801
12/17/2014 11:08:13.071,-0.192,0.209,0.459
12/17/2014 11:08:13.105,-0.134,0.132,0.117
12/17/2014 11:08:13.138,-0.427,0.124,0.16
12/17/2014 11:08:13.171,-0.063,-0.107,0.459
12/17/2014 11:08:13.204,1.414,1.252,0.385
12/17/2014 11:08:13.237,3,1.492,0.606
12/17/2014 11:08:13.270,2.891,-0.321,0.117
12/17/2014 11:08:13.305,1.318,-0.628,0.095
12/17/2014 11:08:13.338,0.557,0.658,-0.463
12/17/2014 11:08:13.371,-0.569,0.816,0.074
12/17/2014 11:08:13.404,-0.678,0.209,0.052
12/17/2014 11:08:13.437,0.251,0.009,-0.312
12/17/2014 11:08:13.470,-0.381,0.081,0.212
12/17/2014 11:08:13.505,0.858,-0.35,-0.307
12/17/2014 11:08:13.538,1.941,0.996,-0.511
12/17/2014 11:08:13.571,2.87,-0.227,-0.082
12/17/2014 11:08:13.605,3,0.111,0.009
12/17/2014 11:08:13.638,2.9,-0.209,-0.121
12/17/2014 11:08:13.671,0.992,0.637,0.117
12/17/2014 11:08:13.704,-0.259,-0.004,0.52
12/17/2014 11:08:13.737,-0.163,0.073,0.225
12/17/2014 11:08:13.770,-0.259,0.274,0.186
12/17/2014 11:08:13.805,-0.356,0.312,0.307
12/17/2014 11:08:13.838,0.096,0.107,0.156
12/17/2014 11:08:13.871,1.59,1.611,0.619
12/17/2014 11:08:13.904,3,0.628,0.273
12/17/2014 11:08:13.937,2.891,-0.517,0.177
12/17/2014 11:08:13.970,1.105,-0.902,0.13
12/17/2014 11:08:14.005,-0.23,0.688,0.554
12/17/2014 11:08:14.038,-0.448,0.966,-0.385
12/17/2014 11:08:14.071,-0.41,0.274,0.117
12/17/2014 11:08:14.105,0.025,-0.034,-0.091
12/17/2014 11:08:14.138,-0.485,-0.188,0.238
12/17/2014 11:08:14.171,0.427,0.517,1.1
12/17/2014 11:08:14.204,1.649,0.598,-0.325
12/17/2014 11:08:14.237,2.368,-0.201,-0.507
12/17/2014 11:08:14.270,3,1.133,-1.346
12/17/2014 11:08:14.305,0.904,0.611,-1.139
12/17/2014 11:08:14.338,0.766,0.397,0.468
12/17/2014 11:08:14.371,-0.502,-0.043,0.286
12/17/2014 11:08:14.404,-0.172,-0.034,0.017
12/17/2014 11:08:14.437,-0.172,-0.103,0.126
12/17/2014 11:08:14.470,0.134,0.645,0.52
12/17/2014 11:08:14.505,0.251,1.167,1.212
12/17/2014 11:08:14.538,3,1.158,0.186
12/17/2014 11:08:14.571,3,0.137,0.658
12/17/2014 11:08:14.605,2.046,-0.786,0.022
12/17/2014 11:08:14.638,1.113,-0.145,-0.026
12/17/2014 11:08:14.671,-0.201,0.778,0.216
12/17/2014 11:08:14.704,-1.444,0.359,-0.411
12/17/2014 11:08:14.737,-0.084,-0.013,0
12/17/2014 11:08:14.770,0.176,0.415,0.268
12/17/2014 11:08:14.805,0.188,-0.043,-0.433
12/17/2014 11:08:14.838,-0.699,0.359,2.082
12/17/2014 11:08:14.871,1.862,0.269,-1.126
12/17/2014 11:08:14.904,3,0.137,-0.346
12/17/2014 11:08:14.937,2.498,0.59,-0.701
12/17/2014 11:08:14.970,1.067,-0.026,1.039
12/17/2014 11:08:15.005,0.017,0.132,0.788
12/17/2014 11:08:15.038,-0.561,0.094,0.385
12/17/2014 11:08:15.071,0.096,0.222,0.017
12/17/2014 11:08:15.105,-0.259,0.073,0.165
12/17/2014 11:08:15.138,0.167,0.073,0.377
12/17/2014 11:08:15.171,0.87,1.492,1.139
12/17/2014 11:08:15.204,3,1.927,1.152
12/17/2014 11:08:15.237,2.95,-0.487,0.225
12/17/2014 11:08:15.270,1.473,-0.979,0.186
12/17/2014 11:08:15.305,-0.038,0.269,0.628
12/17/2014 11:08:15.338,-0.234,0.795,-0.481
12/17/2014 11:08:15.371,-1.1,0.222,-0.182
12/17/2014 11:08:15.404,0.707,-0.201,-0.364
12/17/2014 11:08:15.437,-0.172,0.171,0.225
12/17/2014 11:08:15.470,0.368,0.013,0.437
12/17/2014 11:08:15.505,2.448,0.825,-0.645
12/17/2014 11:08:15.538,2.31,-0.162,-0.26
12/17/2014 11:08:15.571,2.87,0.577,-0.082
12/17/2014 11:08:15.605,3,1.103,-1.026
12/17/2014 11:08:15.638,-0.406,0.517,-0.312
12/17/2014 11:08:15.671,-0.222,0.081,0.576
12/17/2014 11:08:15.704,0.113,0.013,0.225
12/17/2014 11:08:15.737,-0.201,0.111,-0.095
12/17/2014 11:08:15.770,-0.469,0.051,0.316
12/17/2014 11:08:15.805,0.067,0,0.346
12/17/2014 11:08:15.838,1.084,1.5,0.81
12/17/2014 11:08:15.871,3,1.526,1.178
12/17/2014 11:08:15.904,2.958,-0.838,0.143
12/17/2014 11:08:15.937,1.339,-1.363,0.255
12/17/2014 11:08:15.970,0.075,0.252,0.597
12/17/2014 11:08:16.005,-0.862,0.697,-0.541
12/17/2014 11:08:16.038,-0.862,0.06,-0.147
12/17/2014 11:08:16.071,0.427,0.073,-0.121
12/17/2014 11:08:16.105,-0.435,0.107,-0.117
12/17/2014 11:08:16.138,1.875,1.346,0.489
12/17/2014 11:08:16.171,2.427,-0.162,0.355
12/17/2014 11:08:16.204,2.598,0.547,0.134
12/17/2014 11:08:16.237,0.891,0.714,0.247
12/17/2014 11:08:16.270,2.716,-0.124,0.749
12/17/2014 11:08:16.305,0.368,0.124,0.325
12/17/2014 11:08:16.338,-0.669,-0.282,0.104
12/17/2014 11:08:16.371,0.243,-0.047,-0.364
12/17/2014 11:08:16.404,-0.008,0.034,-0.004
12/17/2014 11:08:16.437,0.318,0.192,0.156
12/17/2014 11:08:16.470,0.569,1.637,2.165
12/17/2014 11:08:16.505,3,1.303,0.307
12/17/2014 11:08:16.538,3,0.53,0.619
12/17/2014 11:08:16.571,1.552,-1.013,0.134
12/17/2014 11:08:16.605,1.084,-0.261,-0.091
12/17/2014 11:08:16.638,-0.318,0.722,0.52
12/17/2014 11:08:16.671,-1.716,0.645,-0.26
12/17/2014 11:08:16.704,0.87,-0.286,-0.965
12/17/2014 11:08:16.737,0.05,0.15,0.147
12/17/2014 11:08:16.770,1.406,-0.056,-1.554
12/17/2014 11:08:16.805,2.511,1.12,0.606
12/17/2014 11:08:16.838,2.628,0.051,0.935
12/17/2014 11:08:16.871,2.783,0.688,-0.26
12/17/2014 11:08:16.904,3,1.107,-0.541
12/17/2014 11:08:16.937,-0.126,-0.607,-0.091
12/17/2014 11:08:16.970,-0.347,0.013,0.398
12/17/2014 11:08:17.005,-0.23,0.457,-0.221
12/17/2014 11:08:17.038,0.017,-0.111,-0.242
12/17/2014 11:08:17.071,-0.268,0.158,0.277
12/17/2014 11:08:17.105,0.142,0.111,0.173
12/17/2014 11:08:17.138,1.31,1.487,1.199
12/17/2014 11:08:17.171,3,1.521,0.589
12/17/2014 11:08:17.204,2.988,-0.239,-0.1
12/17/2014 11:08:17.237,1.398,-0.949,0.437
12/17/2014 11:08:17.270,-0.255,0.479,0.589
12/17/2014 11:08:17.305,-0.377,0.953,-0.195
12/17/2014 11:08:17.338,-1.297,-0.137,0.688
12/17/2014 11:08:17.371,0.628,-0.239,-0.147
12/17/2014 11:08:17.404,-0.297,0.021,0.147
12/17/2014 11:08:17.437,0.803,0.556,1.186
12/17/2014 11:08:17.470,1.983,-0.201,-0.126
12/17/2014 11:08:17.505,2.72,0.5,-0.26
12/17/2014 11:08:17.538,1.239,0.782,-0.623
12/17/2014 11:08:17.571,2.046,-0.765,0.065
12/17/2014 11:08:17.605,0.485,-0.085,0.658
12/17/2014 11:08:17.638,-0.707,0.175,-0.152
12/17/2014 11:08:17.671,0.075,0.329,-0.442
12/17/2014 11:08:17.704,-0.113,0.179,-0.052
12/17/2014 11:08:17.737,0.084,0.342,0.52
12/17/2014 11:08:17.770,0.205,0.727,0.961
12/17/2014 11:08:17.805,2.381,0.962,0.372
12/17/2014 11:08:17.838,3,0.714,1.251
12/17/2014 11:08:17.871,2.289,-0.996,-0.009
12/17/2014 11:08:17.904,1.251,-0.218,0.394
12/17/2014 11:08:17.937,-0.184,0.902,0.126
12/17/2014 11:08:17.970,-1.013,0.457,0.156
12/17/2014 11:08:18.005,-0.766,-0.239,0.333
12/17/2014 11:08:18.038,0.561,-0.38,-0.022
12/17/2014 11:08:18.071,0.163,-0.094,-0.913
12/17/2014 11:08:18.105,2.841,1.564,-0.156
12/17/2014 11:08:18.138,1.941,0.12,0.489
12/17/2014 11:08:18.171,2.686,0.645,-0.571
12/17/2014 11:08:18.204,3,1.162,-1.255
12/17/2014 11:08:18.237,1.025,-0.816,0.225
12/17/2014 11:08:18.270,-0.326,0.252,0.463
12/17/2014 11:08:18.305,-0.707,0.359,-0.026
12/17/2014 11:08:18.338,0.377,0.124,-0.381
12/17/2014 11:08:18.371,-0.406,0.299,0.316
12/17/2014 11:08:18.404,0.356,0.346,0.446
12/17/2014 11:08:18.437,0.561,1.081,1.281
12/17/2014 11:08:18.470,3,0.611,0.126
12/17/2014 11:08:18.505,3,0.094,0.377
12/17/2014 11:08:18.538,1.582,-0.838,0.307
12/17/2014 11:08:18.571,0.213,0.838,-0.32
12/17/2014 11:08:18.605,-0.268,1.068,-0.16
12/17/2014 11:08:18.638,-1.824,-0.047,0.459
12/17/2014 11:08:18.671,2.038,-0.286,-1.078
12/17/2014 11:08:18.704,-0.155,0.051,-0.113
12/17/2014 11:08:18.737,0.971,-0.064,-1.004
12/17/2014 11:08:18.770,3,1.551,-0.022
12/17/2014 11:08:18.805,2.9,-0.034,0.788
12/17/2014 11:08:18.838,1.958,0.15,0.277
12/17/2014 11:08:18.871,3,-0.299,0.532
12/17/2014 11:08:18.904,0.213,0.231,0.632
12/17/2014 11:08:18.937,-0.251,-0.282,-0.022
12/17/2014 11:08:18.970,-0.728,0.372,0.043
12/17/2014 11:08:19.005,0.163,0.137,-0.199
12/17/2014 11:08:19.038,-0.163,0.218,0.468
12/17/2014 11:08:19.071,0.276,-0.103,0.255
12/17/2014 11:08:19.105,0.665,1.915,1.511
12/17/2014 11:08:19.138,3,2.094,1.178
12/17/2014 11:08:19.171,3,-1,0.52
12/17/2014 11:08:19.204,0.987,-0.816,0.026
12/17/2014 11:08:19.237,0.201,0.397,-0.022
12/17/2014 11:08:19.270,-0.812,0.675,-0.247
12/17/2014 11:08:19.305,-1.142,0.073,0.545
12/17/2014 11:08:19.338,1.326,-0.047,-0.472
12/17/2014 11:08:19.371,-0.347,0.137,-0.221
12/17/2014 11:08:19.404,0.753,0.312,0.636
12/17/2014 11:08:19.437,2.201,0.269,0.372
12/17/2014 11:08:19.470,2.958,0.62,-0.082
12/17/2014 11:08:19.505,3,0.389,-0.459
12/17/2014 11:08:19.538,1.034,-0.286,0.299
12/17/2014 11:08:19.571,-0.184,0.201,0.035
12/17/2014 11:08:19.605,-1.025,0.607,0.507
12/17/2014 11:08:19.638,0.251,-0.094,-0.424
12/17/2014 11:08:19.671,-0.31,-0.141,0.636
12/17/2014 11:08:19.704,0.824,0.778,0.338
12/17/2014 11:08:19.737,1.561,1.35,0.887
12/17/2014 11:08:19.770,3,1.303,1.191
12/17/2014 11:08:19.805,2.59,-0.675,-0.039
12/17/2014 11:08:19.838,0.615,-0.385,-0.16
12/17/2014 11:08:19.871,0.657,0.504,0.156
12/17/2014 11:08:19.904,-1.598,0.902,-0.481
12/17/2014 11:08:19.937,-0.799,-0.124,0.576
12/17/2014 11:08:19.970,0.686,-0.094,0.065
12/17/2014 11:08:20.005,-0.41,0.034,-0.052
12/17/2014 11:08:20.038,1.423,1.115,0.857
12/17/2014 11:08:20.071,1.502,0.051,0.186
12/17/2014 11:08:20.105,2.678,0.607,-0.766
12/17/2014 11:08:20.138,2.142,1.303,-2.437
12/17/2014 11:08:20.171,0.398,-0.496,-0.654
12/17/2014 11:08:20.204,-0.331,0.291,0.009
12/17/2014 11:08:20.237,-1.117,0.372,0.424
12/17/2014 11:08:20.270,0.385,0.162,-0.442
12/17/2014 11:08:20.305,-0.213,0.073,0.165
12/17/2014 11:08:20.338,0.314,0.427,0.558
12/17/2014 11:08:20.371,0.477,1.218,1.442
12/17/2014 11:08:20.404,3,0.923,-0.45
12/17/2014 11:08:20.437,3,0.389,0.355
12/17/2014 11:08:20.470,1.527,-0.936,0.459
12/17/2014 11:08:20.505,0.209,0.346,0.424
12/17/2014 11:08:20.538,-0.163,0.893,-0.45
12/17/2014 11:08:20.571,-2.193,-0.081,0.74
12/17/2014 11:08:20.605,1.875,-0.321,-1.597
12/17/2014 11:08:20.638,-1.126,0.132,0.576
12/17/2014 11:08:20.671,1.473,0.628,0.74
12/17/2014 11:08:20.704,2.774,-0.132,-0.433
12/17/2014 11:08:20.737,2.527,0.171,0.468
12/17/2014 11:08:20.770,2.465,0.855,-0.1
12/17/2014 11:08:20.805,2.347,-0.538,0.507
12/17/2014 11:08:20.838,0.766,-0.051,0.909
12/17/2014 11:08:20.871,-0.607,0.201,-0.039
12/17/2014 11:08:20.904,-0.536,0.436,-0.268
12/17/2014 11:08:20.937,-0.251,-0.081,-0.074
12/17/2014 11:08:20.970,0.075,0.62,0.576
12/17/2014 11:08:21.005,0.841,0.765,1.078
12/17/2014 11:08:21.038,2.891,0.397,0.165
12/17/2014 11:08:21.071,3,0.735,0.385
12/17/2014 11:08:21.105,1.95,-0.983,0.126
12/17/2014 11:08:21.138,0.887,0.748,-0.567
12/17/2014 11:08:21.171,-0.318,0.808,0.117
12/17/2014 11:08:21.204,-1.657,0.132,0.667
12/17/2014 11:08:21.237,1.23,-0.41,-1.069
12/17/2014 11:08:21.270,-0.51,-0.128,0.165
12/17/2014 11:08:21.305,1.251,-0.222,-1.087
12/17/2014 11:08:21.338,3,2.303,-0.346
12/17/2014 11:08:21.371,2.552,-0.081,0.74
12/17/2014 11:08:21.404,2.239,0.573,-0.472
12/17/2014 11:08:21.437,3,-0.291,-0.156
12/17/2014 11:08:21.470,0.561,-0.329,0.61
12/17/2014 11:08:21.505,-0.105,0.329,-0.13
12/17/2014 11:08:21.538,-0.95,0.44,-0.069
12/17/2014 11:08:21.571,-0.096,0.009,-0.143
12/17/2014 11:08:21.605,-0.038,0.397,0.619
12/17/2014 11:08:21.638,0.59,0.295,0
12/17/2014 11:08:21.671,1.23,1.598,1.26
12/17/2014 11:08:21.704,3,1.568,0.87
12/17/2014 11:08:21.737,3,-1.162,0.165
12/17/2014 11:08:21.770,1.402,-0.346,0.494
12/17/2014 11:08:21.805,0.05,0.675,0.186
12/17/2014 11:08:21.838,-1.084,0.603,-0.186
12/17/2014 11:08:21.871,-1.36,-0.081,0.849
12/17/2014 11:08:21.904,1.481,-0.15,-0.32
12/17/2014 11:08:21.937,-0.653,0.282,-0.022
12/17/2014 11:08:21.970,0.285,0.376,1.463
12/17/2014 11:08:22.005,1.841,-0.068,-0.104
12/17/2014 11:08:22.038,2.707,0.299,-0.061
12/17/2014 11:08:22.071,2.628,0.628,-0.385
12/17/2014 11:08:22.105,1.193,-0.876,1.039
12/17/2014 11:08:22.138,-0.251,0.162,0.697
12/17/2014 11:08:22.171,-0.795,0.53,0.195
12/17/2014 11:08:22.204,0.142,0.342,-0.567
12/17/2014 11:08:22.237,-0.531,0.124,0.165
12/17/2014 11:08:22.270,0.243,0.517,0.589
12/17/2014 11:08:22.305,0.707,1.026,1.39
12/17/2014 11:08:22.338,3,0.594,-0.268
12/17/2014 11:08:22.371,3,0.171,0.853
12/17/2014 11:08:22.404,1.285,-0.598,0.407
12/17/2014 11:08:22.437,0.398,0.786,0.338
12/17/2014 11:08:22.470,-0.406,0.633,-0.186
12/17/2014 11:08:22.505,-1.9,-0.192,0.948
12/17/2014 11:08:22.538,2.368,-0.222,-1.255
12/17/2014 11:08:22.571,-0.816,0.252,0.255
12/17/2014 11:08:22.605,1.021,0.064,-0.511
12/17/2014 11:08:22.638,2.628,0.923,0.126
12/17/2014 11:08:22.671,2.615,-0.41,0.727
12/17/2014 11:08:22.704,3,0.598,0.056
12/17/2014 11:08:22.737,2.87,-0.346,0.433
12/17/2014 11:08:22.770,0.038,-0.021,0.68
12/17/2014 11:08:22.805,-0.59,0.128,0.307
12/17/2014 11:08:22.838,-0.23,0.598,-0.312
12/17/2014 11:08:22.871,-0.49,0.201,0.104
12/17/2014 11:08:22.904,-0.172,0.453,0.606
12/17/2014 11:08:22.937,1.017,0.953,1.178
12/17/2014 11:08:22.970,3,-0.073,-0.779
12/17/2014 11:08:23.005,3,-0.778,1.273
12/17/2014 11:08:23.038,0.862,0.222,0.251
12/17/2014 11:08:23.071,0.096,1.115,0
12/17/2014 11:08:23.105,-0.803,0.598,0.017
12/17/2014 11:08:23.138,-1.28,-0.393,0.779
12/17/2014 11:08:23.171,1.456,-0.103,-0.619
12/17/2014 11:08:23.204,-0.799,0.338,-0.009
12/17/2014 11:08:23.237,1.025,0.705,1.442
12/17/2014 11:08:23.270,1.167,-0.38,0.268
12/17/2014 11:08:23.305,2.736,0.321,0.134
12/17/2014 11:08:23.338,3,0.752,-0.082
12/17/2014 11:08:23.371,1.862,-1.124,0.779
12/17/2014 11:08:23.404,-0.155,0.081,0.74
12/17/2014 11:08:23.437,-0.841,0.675,0.104
12/17/2014 11:08:23.470,0.155,0.355,-0.532
12/17/2014 11:08:23.505,-0.226,0.171,-0.195
12/17/2014 11:08:23.538,-0.054,0.389,0.732
12/17/2014 11:08:23.571,0.402,0.893,1.45
12/17/2014 11:08:23.605,2.854,0.509,-0.117
12/17/2014 11:08:23.638,3,1.013,0.9
12/17/2014 11:08:23.671,1.862,-0.996,0.29
12/17/2014 11:08:23.704,0.711,0.705,0.065
12/17/2014 11:08:23.737,0.096,0.645,-0.173
12/17/2014 11:08:23.770,-2.163,0.252,0.346
12/17/2014 11:08:23.805,0.084,-0.141,0.074
12/17/2014 11:08:23.838,0.084,0.179,0.597
12/17/2014 11:08:23.871,0.163,0.41,-0.372
12/17/2014 11:08:23.904,-0.213,0.504,1.983
12/17/2014 11:08:23.937,1.912,-0.359,-0.221
12/17/2014 11:08:23.970,3,0.389,-0.052
12/17/2014 11:08:24.005,2.732,0.291,-0.844
12/17/2014 11:08:24.038,0.569,-0.128,0.195
12/17/2014 11:08:24.071,-0.523,0.603,0.074
12/17/2014 11:08:24.105,-0.891,0.705,0.074
12/17/2014 11:08:24.138,0.155,-0.064,-0.303
12/17/2014 11:08:24.171,-0.398,0.026,0.688
12/17/2014 11:08:24.204,0.51,0.034,0.087
12/17/2014 11:08:24.237,0.669,1.581,1.593
12/17/2014 11:08:24.270,3,1.62,0.68
12/17/2014 11:08:24.305,3,-0.996,0.247
12/17/2014 11:08:24.338,1.096,-0.026,0.342
12/17/2014 11:08:24.371,-0.088,0.299,0.476
12/17/2014 11:08:24.404,-1.08,0.543,-0.502
12/17/2014 11:08:24.437,-0.941,0.081,0.606
12/17/2014 11:08:24.470,1.121,-0.201,-0.143
12/17/2014 11:08:24.505,-0.607,0.252,-0.173
12/17/2014 11:08:24.538,1.142,0.727,1.069
12/17/2014 11:08:24.571,1.782,-0.269,0.818
12/17/2014 11:08:24.605,3,0.59,0.017
12/17/2014 11:08:24.638,3,0.167,-0.26
12/17/2014 11:08:24.671,0.59,-0.671,0.97
12/17/2014 11:08:24.704,-0.23,0.41,0.264
12/17/2014 11:08:24.737,-1.339,0.598,0.286
12/17/2014 11:08:24.770,0.657,0.124,-0.571
12/17/2014 11:08:24.805,-0.611,0.137,0.567
12/17/2014 11:08:24.838,0.439,0.299,0.424
12/17/2014 11:08:24.871,0.699,1.692,1.779
12/17/2014 11:08:24.904,3,1.56,0.606
12/17/2014 11:08:24.937,3,-0.128,0.567
12/17/2014 11:08:24.970,1.297,-0.688,0.216
12/17/2014 11:08:25.005,0.569,0.282,0.026
12/17/2014 11:08:25.038,-0.971,0.568,-0.29
12/17/2014 11:08:25.071,-1.494,0.15,1.061
12/17/2014 11:08:25.105,2.088,0.034,-0.844
12/17/2014 11:08:25.138,-0.95,0.103,0.225
12/17/2014 11:08:25.171,0.766,-0.201,0.576
12/17/2014 11:08:25.204,3,0.111,-0.645
12/17/2014 11:08:25.237,3,0.376,0.208
12/17/2014 11:08:25.270,2.427,0.376,-0.433
12/17/2014 11:08:25.305,2.067,-1.047,0.745
12/17/2014 11:08:25.338,-0.163,0.252,0.693
12/17/2014 11:08:25.371,-0.833,0.47,0.216
12/17/2014 11:08:25.404,0.234,0.128,-0.411
12/17/2014 11:08:25.437,-0.435,0.09,0.528
12/17/2014 11:08:25.470,0.444,0.457,0.225
12/17/2014 11:08:25.505,0.686,1.509,1.784
12/17/2014 11:08:25.538,3,1.244,0.117
12/17/2014 11:08:25.571,3,-0.462,0.342
12/17/2014 11:08:25.605,0.912,-0.291,0.225
12/17/2014 11:08:25.638,-0.222,0.756,0.338
12/17/2014 11:08:25.671,-0.741,0.282,-0.381
12/17/2014 11:08:25.704,-1.155,-0.111,0.667
12/17/2014 11:08:25.737,0.996,0.141,-0.403
12/17/2014 11:08:25.770,-0.649,0.239,-0.039
12/17/2014 11:08:25.805,0.531,0.449,1.242
12/17/2014 11:08:25.838,1.941,-0.487,-0.1
12/17/2014 11:08:25.871,2.745,0.291,0.065
12/17/2014 11:08:25.904,2.862,0.624,-0.173
12/17/2014 11:08:25.937,2.184,-1.034,1.329
12/17/2014 11:08:25.970,-0.368,0.068,0.714
12/17/2014 11:08:26.005,-0.782,0.547,0.216
12/17/2014 11:08:26.038,0.259,0.188,-0.394
12/17/2014 11:08:26.071,-0.385,0.004,0.238
12/17/2014 11:08:26.105,0.23,0.504,0.628
12/17/2014 11:08:26.138,0.619,1.697,2.065
12/17/2014 11:08:26.171,3,1.363,0.697
12/17/2014 11:08:26.204,3,0.325,0.416
12/17/2014 11:08:26.237,1.598,-0.91,0.727
12/17/2014 11:08:26.270,0.598,0.688,0.351
12/17/2014 11:08:26.305,-0.444,0.838,-0.004
12/17/2014 11:08:26.338,-2.142,0.265,0.9
12/17/2014 11:08:26.371,1.318,-0.124,-0.632
12/17/2014 11:08:26.404,-0.293,0.107,0.238
12/17/2014 11:08:26.437,0.795,-0.299,-1.329
12/17/2014 11:08:26.470,2.172,1.133,0.558
12/17/2014 11:08:26.505,2.172,-0.111,0.857
12/17/2014 11:08:26.538,2.824,0.269,-0.251
12/17/2014 11:08:26.571,3,0.145,-0.468
12/17/2014 11:08:26.605,0.025,0.192,0.074
12/17/2014 11:08:26.638,-0.531,0.15,0.035
12/17/2014 11:08:26.671,-0.536,0.479,-0.082
12/17/2014 11:08:26.704,-0.134,-0.15,-0.177
12/17/2014 11:08:26.737,-0.105,0.389,0.636
12/17/2014 11:08:26.770,0.557,0.419,-0.281
12/17/2014 11:08:26.805,1.038,1.338,2.126
12/17/2014 11:08:26.838,3,1.278,1.108
12/17/2014 11:08:26.871,2.615,-0.799,0.035
12/17/2014 11:08:26.904,0.569,0.038,0.035
12/17/2014 11:08:26.937,0.531,0.355,0.035
12/17/2014 11:08:26.970,-1.833,0.577,-0.212
12/17/2014 11:08:27.005,-1.034,-0.103,1.1
12/17/2014 11:08:27.038,1.356,0.064,0.152
12/17/2014 11:08:27.071,-0.72,0.376,0.104
12/17/2014 11:08:27.105,0.201,0.004,0.918
12/17/2014 11:08:27.138,2.347,0.081,-0.667
12/17/2014 11:08:27.171,3,0.282,-0.143
12/17/2014 11:08:27.204,2.201,0.192,0.035
12/17/2014 11:08:27.237,2.071,-0.979,0.507
12/17/2014 11:08:27.270,-0.1,0.167,0.814
12/17/2014 11:08:27.305,-0.736,0.735,0.398
12/17/2014 11:08:27.338,0.398,0.043,-0.45
12/17/2014 11:08:27.371,-0.259,0,0.165
12/17/2014 11:08:27.404,0.23,0.423,0.437
12/17/2014 11:08:27.437,0.485,1.291,1.745
12/17/2014 11:08:27.470,3,0.953,0.147
12/17/2014 11:08:27.505,3,0.346,0.658
12/17/2014 11:08:27.538,1.619,-0.453,0.26
12/17/2014 11:08:27.571,1.377,0.209,-0.113
12/17/2014 11:08:27.605,-0.506,0.675,0.165
12/17/2014 11:08:27.638,-2.276,0.137,0.883
12/17/2014 11:08:27.671,2.239,-0.261,-1.307
12/17/2014 11:08:27.704,-0.172,0.188,0.065
12/17/2014 11:08:27.737,0.582,-0.38,-0.866
12/17/2014 11:08:27.770,2.812,1.184,-0.026
12/17/2014 11:08:27.805,1.941,0.124,1.026
12/17/2014 11:08:27.838,2.511,0.727,-0.684
12/17/2014 11:08:27.871,3,0.765,-0.909
12/17/2014 11:08:27.904,-0.561,-0.457,-0.71
12/17/2014 11:08:27.937,-0.142,0.517,0.216
12/17/2014 11:08:27.970,-1.347,0.389,0.45
12/17/2014 11:08:28.005,0.569,0.124,-0.502
12/17/2014 11:08:28.038,-0.385,0.162,0.398
12/17/2014 11:08:28.071,0.293,0.227,0.277
12/17/2014 11:08:28.105,0.971,0.915,1.416
12/17/2014 11:08:28.138,2.891,1.756,1.572
12/17/2014 11:08:28.171,3,-0.124,-0.052
12/17/2014 11:08:28.204,1.854,-0.765,0.827
12/17/2014 11:08:28.237,0.473,0.782,0.268
12/17/2014 11:08:28.270,-0.268,0.573,-0.152
12/17/2014 11:08:28.305,-2.259,0.239,0.879
12/17/2014 11:08:28.338,1.126,-0.201,-0.662
12/17/2014 11:08:28.371,-0.473,0.038,0.381
12/17/2014 11:08:28.404,0.632,-0.132,-0.225
12/17/2014 11:08:28.437,3,1.838,-0.749
12/17/2014 11:08:28.470,2.23,-0.034,0.437
12/17/2014 11:08:28.505,2.343,0.389,-0.009
12/17/2014 11:08:28.538,3,-0.427,0.355
12/17/2014 11:08:28.571,0.335,0.034,0.372
12/17/2014 11:08:28.605,-0.59,0.295,0.195
12/17/2014 11:08:28.638,-0.172,0.496,0.156
12/17/2014 11:08:28.671,0.042,-0.162,-0.16
12/17/2014 11:08:28.704,-0.054,-0.034,0.307
12/17/2014 11:08:28.737,0.23,0.346,0.498
12/17/2014 11:08:28.770,0.347,1.402,2.013
12/17/2014 11:08:28.805,3,0.705,-0.333
12/17/2014 11:08:28.838,3,0.56,0.537
12/17/2014 11:08:28.871,1.259,-0.53,0.061
12/17/2014 11:08:28.904,1.067,0.068,0.247
12/17/2014 11:08:28.937,-0.565,1.261,-0.896
12/17/2014 11:08:28.970,-2.1,-0.252,1.935
12/17/2014 11:08:29.005,3,-0.62,-1.671
12/17/2014 11:08:29.038,-0.255,0.269,0.749
12/17/2014 11:08:29.071,0.339,-0.274,-0.827
12/17/2014 11:08:29.105,3,2.5,-0.602
12/17/2014 11:08:29.138,3,0.073,0.537
12/17/2014 11:08:29.171,3,0.056,-0.26
12/17/2014 11:08:29.204,3,-0.667,0.035
12/17/2014 11:08:29.237,-0.23,0.457,0.628
12/17/2014 11:08:29.270,-0.523,0.795,0.424
12/17/2014 11:08:29.305,-0.075,0.457,-0.268
12/17/2014 11:08:29.338,-0.243,0.013,-0.199
12/17/2014 11:08:29.371,-0.23,0.094,0.801
12/17/2014 11:08:29.404,0.351,-0.094,-0.242
12/17/2014 11:08:29.437,0.791,1.41,1.762
12/17/2014 11:08:29.470,3,1.769,1.221
12/17/2014 11:08:29.505,3,-0.269,0.152
12/17/2014 11:08:29.538,0.87,-0.265,-0.502
12/17/2014 11:08:29.571,1.008,0.252,0.563
12/17/2014 11:08:29.605,-0.912,0.624,-0.022
12/17/2014 11:08:29.638,-1.983,0.081,0.779
12/17/2014 11:08:29.671,2.824,-0.141,-1.416
12/17/2014 11:08:29.704,-1.176,0.41,0.693
12/17/2014 11:08:29.737,1.126,0.547,0.333
12/17/2014 11:08:29.770,2.824,0.966,-0.494
12/17/2014 11:08:29.805,2.615,0.073,0.113
12/17/2014 11:08:29.838,2.724,0.329,0
12/17/2014 11:08:29.871,2.615,-0.611,0.554
12/17/2014 11:08:29.904,-0.134,0.009,0.775
12/17/2014 11:08:29.937,-0.921,0.479,0.247
12/17/2014 11:08:29.970,0.607,0.312,-0.502
12/17/2014 11:08:30.005,-0.163,0.013,-0.052
12/17/2014 11:08:30.038,-0.134,0.094,0.446
12/17/2014 11:08:30.071,0.347,0.585,0.117
12/17/2014 11:08:30.105,1.113,0.756,1.619
12/17/2014 11:08:30.138,3,1.333,1.671
12/17/2014 11:08:30.171,2.113,-0.171,-0.32
12/17/2014 11:08:30.204,0.172,-0.141,0.636
12/17/2014 11:08:30.237,0.699,0.252,0.208
12/17/2014 11:08:30.270,-2.506,0.44,0.173
12/17/2014 11:08:30.305,-0.172,-0.321,0.511
12/17/2014 11:08:30.338,0.987,0.376,0.216
12/17/2014 11:08:30.371,-0.883,0.239,-0.13
12/17/2014 11:08:30.404,0.561,0.124,0.238
12/17/2014 11:08:30.437,3,1.47,-0.935
12/17/2014 11:08:30.470,2.967,-0.487,0.268
12/17/2014 11:08:30.505,2.163,-0.094,-0.896
12/17/2014 11:08:30.538,2.883,-0.517,0.636
12/17/2014 11:08:30.571,0.05,0.124,0.537
12/17/2014 11:08:30.605,-0.87,0.239,0.216
12/17/2014 11:08:30.638,0.427,0.282,-0.364
12/17/2014 11:08:30.671,-0.326,-0.132,0.126
12/17/2014 11:08:30.704,0.414,0.41,0.299
12/17/2014 11:08:30.737,0.289,1.282,1.784
12/17/2014 11:08:30.770,3,0.727,0
12/17/2014 11:08:30.805,3,1.218,1.221
12/17/2014 11:08:30.838,2.163,-0.731,0.307
12/17/2014 11:08:30.871,0.213,0.231,-0.351
12/17/2014 11:08:30.904,0.343,-0.141,-0.433
12/17/2014 11:08:30.937,-2.477,0.5,0.247
12/17/2014 11:08:30.970,-0.356,-0.269,0.675
12/17/2014 11:08:31.005,1.247,0.479,0.177
12/17/2014 11:08:31.038,-0.268,0.231,-0.052
12/17/2014 11:08:31.071,0.259,-0.171,0.104
12/17/2014 11:08:31.105,3,1.923,-1.234
12/17/2014 11:08:31.138,3,0.043,0.177
12/17/2014 11:08:31.171,3,0.047,-0.494
12/17/2014 11:08:31.204,3,-0.547,-1.074
12/17/2014 11:08:31.237,-0.506,0.068,-0.104
12/17/2014 11:08:31.270,-0.9,0.825,0.372
12/17/2014 11:08:31.305,0.502,0.342,-0.472
12/17/2014 11:08:31.338,-0.192,0.261,-0.082
12/17/2014 11:08:31.371,-0.276,0.115,0.355
12/17/2014 11:08:31.404,0.092,0.479,1.312
12/17/2014 11:08:31.437,1.724,0.312,0.104
12/17/2014 11:08:31.470,3,1.59,1.974
12/17/2014 11:08:31.505,2.046,-0.359,-0.065
12/17/2014 11:08:31.538,1.406,-0.444,-0.368
12/17/2014 11:08:31.571,0.854,0.081,0.286
12/17/2014 11:08:31.605,-1.356,0.799,0.104
12/17/2014 11:08:31.638,-1.155,-0.068,0.948
12/17/2014 11:08:31.671,2.561,0.107,-0.926
12/17/2014 11:08:31.704,-0.711,0.094,-0.022
12/17/2014 11:08:31.737,-0.142,0.496,1.688
12/17/2014 11:08:31.770,1.435,0.098,-0.576
12/17/2014 11:08:31.805,2.582,0.141,0.056
12/17/2014 11:08:31.838,2.833,0.419,-0.039
12/17/2014 11:08:31.871,2.925,-0.449,0.468
12/17/2014 11:08:31.904,-0.456,0.162,0.576
12/17/2014 11:08:31.937,-0.824,0.239,0.173
12/17/2014 11:08:31.970,0.728,0.115,-0.481
12/17/2014 11:08:32.005,-0.201,-0.051,0.104
12/17/2014 11:08:32.038,0.222,0.389,0.468
12/17/2014 11:08:32.071,0.297,1.321,1.632
12/17/2014 11:08:32.105,3,0.474,-0.442
12/17/2014 11:08:32.138,3,1.115,0.879
12/17/2014 11:08:32.171,1.699,-0.47,-0.069
12/17/2014 11:08:32.204,0.13,0.03,0.558
12/17/2014 11:08:32.237,0.427,0.44,-0.524
12/17/2014 11:08:32.270,-2.13,0.449,0.849
12/17/2014 11:08:32.305,0.377,-0.299,0
12/17/2014 11:08:32.338,0.494,0.568,0.195
12/17/2014 11:08:32.371,-0.582,0.192,-0.571
12/17/2014 11:08:32.404,0.699,1.026,1.823
12/17/2014 11:08:32.437,1.067,-0.56,-0.182
12/17/2014 11:08:32.470,2.795,0.111,-0.771
12/17/2014 11:08:32.505,0.979,0.714,-0.727
12/17/2014 11:08:32.538,1.54,-0.15,0.857
12/17/2014 11:08:32.571,-0.326,0.239,0.619
12/17/2014 11:08:32.605,-0.611,0.312,0.351
12/17/2014 11:08:32.638,0.322,0.171,-0.29
12/17/2014 11:08:32.671,-0.243,0.081,0.416
12/17/2014 11:08:32.704,0.192,0.325,0.398
12/17/2014 11:08:32.737,0.774,0.748,1.61
12/17/2014 11:08:32.770,3,1.983,2.948
12/17/2014 11:08:32.805,2.109,-0.35,-0.307
12/17/2014 11:08:32.838,1.678,-0.966,0.459
12/17/2014 11:08:32.871,0.72,-0.038,0.636
12/17/2014 11:08:32.904,-1.017,0.15,-0.784
12/17/2014 11:08:32.937,-1.343,0.205,0.147
12/17/2014 11:08:32.970,0.594,0.103,-0.035
12/17/2014 11:08:33.005,-0.172,0.098,0.407
12/17/2014 11:08:33.038,-0.134,0.068,0.84
12/17/2014 11:08:33.071,1.707,0.346,-0.156
12/17/2014 11:08:33.105,2.561,-0.179,0.55
12/17/2014 11:08:33.138,3,0.372,0.104
12/17/2014 11:08:33.171,3,0.855,0.437
12/17/2014 11:08:33.204,0.444,0.974,0.55
12/17/2014 11:08:33.237,-0.435,0.282,0.589
12/17/2014 11:08:33.270,-0.527,0.111,0.437
12/17/2014 11:08:33.305,0.155,0.162,-0.662
12/17/2014 11:08:33.338,-0.289,-0.252,0.255
12/17/2014 11:08:33.371,0.159,-0.303,0.338
12/17/2014 11:08:33.404,1.063,0.62,1.273
12/17/2014 11:08:33.437,3,2.004,3
12/17/2014 11:08:33.470,1.929,-0.231,-0.221
12/17/2014 11:08:33.505,1.933,-0.474,0.688
12/17/2014 11:08:33.538,0.427,0.47,0.403
12/17/2014 11:08:33.571,-0.155,0.013,-0.203
12/17/2014 11:08:33.605,-2.172,-0.261,0.74
12/17/2014 11:08:33.638,0.326,-0.013,0.576
12/17/2014 11:08:33.671,0.389,0.56,0.97
12/17/2014 11:08:33.704,0.607,0.222,-0.13
12/17/2014 11:08:33.737,2.9,1.35,-0.935
12/17/2014 11:08:33.770,2.569,-0.154,0.567
12/17/2014 11:08:33.805,2.833,0.282,-0.567
12/17/2014 11:08:33.838,1.619,-0.162,-0.628
12/17/2014 11:08:33.871,0.017,-0.188,-0.061
12/17/2014 11:08:33.904,-0.372,0.983,0.416
12/17/2014 11:08:33.937,-0.201,0.261,0.035
12/17/2014 11:08:33.970,0.213,-0.034,-0.394
12/17/2014 11:08:34.005,-0.356,-0.137,0.372
12/17/2014 11:08:34.038,0.289,-0.222,0.035
12/17/2014 11:08:34.071,0.707,1.581,2.056
12/17/2014 11:08:34.105,2.854,1.85,1.351
12/17/2014 11:08:34.138,3,-0.073,0.247
12/17/2014 11:08:34.171,1.218,-0.346,-0.039
12/17/2014 11:08:34.204,1.276,0.171,0.429
12/17/2014 11:08:34.237,-1.163,0.974,-0.221
12/17/2014 11:08:34.270,-1.477,0.073,0.918
12/17/2014 11:08:34.305,2.649,0.179,-1.147
12/17/2014 11:08:34.338,-0.335,0.269,0.255
12/17/2014 11:08:34.371,-0.28,0.355,1.875
12/17/2014 11:08:34.404,1.184,-0.103,-0.403
12/17/2014 11:08:34.437,2.561,0.132,-0.442
12/17/2014 11:08:34.470,2.473,0.141,-0.16
12/17/2014 11:08:34.505,2.385,0.303,-0.974
12/17/2014 11:08:34.538,-0.607,-0.192,0.55
12/17/2014 11:08:34.571,-0.661,0.291,0.459
12/17/2014 11:08:34.605,0.883,0.41,-0.342
12/17/2014 11:08:34.638,-0.134,0.043,-0.052
12/17/2014 11:08:34.671,0.213,0.064,0.437
12/17/2014 11:08:34.704,0.163,0.906,1.831
12/17/2014 11:08:34.737,3,0.944,-0.433
12/17/2014 11:08:34.770,3,1.449,1.602
12/17/2014 11:08:34.805,1.87,-0.179,0.307
12/17/2014 11:08:34.838,0.749,-0.209,-0.896
12/17/2014 11:08:34.871,0.285,-0.329,0.52
12/17/2014 11:08:34.904,-2.038,0.269,-0.662
12/17/2014 11:08:34.937,-0.268,-0.355,0.385
12/17/2014 11:08:34.970,0.87,0.406,0.316
12/17/2014 11:08:35.005,0.782,0.312,-0.532
12/17/2014 11:08:35.038,0.084,0.645,1.745
12/17/2014 11:08:35.071,1.113,-0.5,-0.056
12/17/2014 11:08:35.105,2.297,0.466,-0.303
12/17/2014 11:08:35.138,2.067,0.509,-0.264
12/17/2014 11:08:35.171,2.9,0.372,-0.823
12/17/2014 11:08:35.204,-0.523,-0.389,-0.03
12/17/2014 11:08:35.237,-0.732,0.179,0.303
12/17/2014 11:08:35.270,0.456,0.312,-0.403
12/17/2014 11:08:35.305,-0.159,0.239,-0.043
12/17/2014 11:08:35.338,0.134,0.111,0.342
12/17/2014 11:08:35.371,0.243,0.782,1.732
12/17/2014 11:08:35.404,3,0.372,-0.463
12/17/2014 11:08:35.437,3,1.35,1.805
12/17/2014 11:08:35.470,1.912,-0.38,0.351
12/17/2014 11:08:35.505,1.414,-0.047,-0.199
12/17/2014 11:08:35.538,0.255,-0.111,0.537
12/17/2014 11:08:35.571,-1.444,0.124,-0.532
12/17/2014 11:08:35.605,-0.69,-0.265,0.333
12/17/2014 11:08:35.638,1.247,0.38,0.087
12/17/2014 11:08:35.671,0.477,0.415,-0.511
12/17/2014 11:08:35.704,1.502,1.244,0.416
12/17/2014 11:08:35.737,1.72,-0.483,0.636
12/17/2014 11:08:35.770,2.536,0.457,-0.398
12/17/2014 11:08:35.805,2.008,0.487,-0.061
12/17/2014 11:08:35.838,2.209,-0.295,0.688
12/17/2014 11:08:35.871,-0.552,-0.009,0.507
12/17/2014 11:08:35.904,-0.213,0.192,0.087
12/17/2014 11:08:35.937,0.226,0.081,-0.26
12/17/2014 11:08:35.970,-0.054,-0.073,0.216
12/17/2014 11:08:36.005,0.259,-0.047,0.069
12/17/2014 11:08:36.038,0.636,0.855,1.857
12/17/2014 11:08:36.071,3,1.603,1.1
12/17/2014 11:08:36.105,3,0.261,-0.173
12/17/2014 11:08:36.138,1.435,-0.15,0.286
12/17/2014 11:08:36.171,0.427,-0.239,0.498
12/17/2014 11:08:36.204,-0.096,0.423,-0.589
12/17/2014 11:08:36.237,-2.163,-0.124,0.887
12/17/2014 11:08:36.270,1.289,0.038,-0.597
12/17/2014 11:08:36.305,-0.05,0.547,0.753
12/17/2014 11:08:36.338,1.138,0.132,-0.468
12/17/2014 11:08:36.371,3,1.637,-0.364
12/17/2014 11:08:36.404,2.465,-0.38,1.1
12/17/2014 11:08:36.437,2.239,0.658,-0.775
12/17/2014 11:08:36.470,3,1.162,-0.662
12/17/2014 11:08:36.505,2.297,-0.389,-0.182
12/17/2014 11:08:36.538,-0.895,0.231,0.407
12/17/2014 11:08:36.571,-0.305,0.449,0.208
12/17/2014 11:08:36.605,0.322,0.192,-0.156
12/17/2014 11:08:36.638,-0.046,0.111,0.134
12/17/2014 11:08:36.671,0.184,-0.171,0.147
12/17/2014 11:08:36.704,0.649,0.923,1.974
12/17/2014 11:08:36.737,3,1.829,0.879
12/17/2014 11:08:36.770,3,0.397,0.117
12/17/2014 11:08:36.805,1.552,-0.312,0.307
12/17/2014 11:08:36.838,0.347,-0.034,0.372
12/17/2014 11:08:36.871,0.226,0.252,-0.368
12/17/2014 11:08:36.904,-2.222,-0.081,0.316
12/17/2014 11:08:36.937,0.766,-0.35,-0.372
12/17/2014 11:08:36.970,0.444,0.38,0.342
12/17/2014 11:08:37.005,0.766,0.325,-0.9
12/17/2014 11:08:37.038,3,2.603,-0.221
12/17/2014 11:08:37.071,2.833,-0.444,0.658
12/17/2014 11:08:37.105,2.038,0.35,-0.649
12/17/2014 11:08:37.138,2.77,0.611,-0.494
12/17/2014 11:08:37.171,2.142,0.598,-0.333
12/17/2014 11:08:37.204,-0.833,0.051,0.507
12/17/2014 11:08:37.237,-0.038,0.192,-0.03
12/17/2014 11:08:37.270,0.23,0.081,-0.165
12/17/2014 11:08:37.305,-0.075,0.073,0.121
12/17/2014 11:08:37.338,0.213,-0.124,0.277
12/17/2014 11:08:37.371,0.31,1.073,1.922
12/17/2014 11:08:37.404,3,1.18,0.286
12/17/2014 11:08:37.437,3,1.133,0.589
12/17/2014 11:08:37.470,1.824,-0.359,0.225
12/17/2014 11:08:37.505,-0.054,-0.312,0.545
12/17/2014 11:08:37.538,0.456,0.115,-0.1
12/17/2014 11:08:37.571,-2.096,0.081,-0.091
12/17/2014 11:08:37.605,0.126,-0.286,0.095
12/17/2014 11:08:37.638,0.557,0.47,0.658
12/17/2014 11:08:37.671,1.163,0.372,-1.013
12/17/2014 11:08:37.704,2.736,1.718,0.091
12/17/2014 11:08:37.737,2.347,-0.312,1.03
12/17/2014 11:08:37.770,2.297,0.778,-0.957
12/17/2014 11:08:37.805,2.766,0.786,-0.584
12/17/2014 11:08:37.838,1.883,-0.782,0.507
12/17/2014 11:08:37.871,-0.766,0.162,0.394
12/17/2014 11:08:37.904,0.126,0.427,-0.255
12/17/2014 11:08:37.937,0.096,0.218,-0.074
12/17/2014 11:08:37.970,-0.017,0.073,0.147
12/17/2014 11:08:38.005,0.142,-0.128,-0.017
12/17/2014 11:08:38.038,0.929,0.923,2.277
12/17/2014 11:08:38.071,2.686,1.551,0.827
12/17/2014 11:08:38.105,2.891,0.5,-0.216
12/17/2014 11:08:38.138,1.569,-0.564,0.251
12/17/2014 11:08:38.171,0.172,0.073,0.507
12/17/2014 11:08:38.204,0.222,0.111,-0.156
12/17/2014 11:08:38.237,-2.075,0.051,0.212
12/17/2014 11:08:38.270,0.268,-0.137,0.238
12/17/2014 11:08:38.305,0.255,0.252,0.567
12/17/2014 11:08:38.338,0.971,0.026,-0.463
12/17/2014 11:08:38.371,3,1.551,-1.095
12/17/2014 11:08:38.404,2.64,-0.261,0.203
12/17/2014 11:08:38.437,2.201,0.034,-0.667
12/17/2014 11:08:38.470,1.201,0.727,-0.866
12/17/2014 11:08:38.505,1.034,0,-0.004
12/17/2014 11:08:38.538,-0.339,0.509,0.247
12/17/2014 11:08:38.571,0.134,0.132,-0.212
12/17/2014 11:08:38.605,0.18,0.021,0.026
12/17/2014 11:08:38.638,-0.046,0.141,0.186
12/17/2014 11:08:38.671,-0.13,0.141,0.247
12/17/2014 11:08:38.704,1.9,0.265,1.16
12/17/2014 11:08:38.737,3,1.44,0.779
12/17/2014 11:08:38.770,2.582,0.145,-0.381
12/17/2014 11:08:38.805,1.557,-0.38,0.385
12/17/2014 11:08:38.838,0.686,0.026,0.693
12/17/2014 11:08:38.871,-0.213,0.38,-0.225
12/17/2014 11:08:38.904,-2.08,-0.094,0.216
12/17/2014 11:08:38.937,0.795,-0.222,-0.186
12/17/2014 11:08:38.970,0.163,0.359,0.429
12/17/2014 11:08:39.005,1.084,-0.128,-0.654
12/17/2014 11:08:39.038,3,2.162,-0.091
12/17/2014 11:08:39.071,2.552,-0.312,1.039
12/17/2014 11:08:39.105,1.954,0.645,-0.853
12/17/2014 11:08:39.138,3,1.244,-0.628
12/17/2014 11:08:39.171,1.921,0.667,-1.013
12/17/2014 11:08:39.204,-0.803,0.286,0.052
12/17/2014 11:08:39.237,-0.025,0.124,-0.052
12/17/2014 11:08:39.270,0.054,0.068,-0.1
12/17/2014 11:08:39.305,0.021,0.073,0.121
12/17/2014 11:08:39.338,0.243,-0.252,0.017
12/17/2014 11:08:39.371,0.636,1.073,2.381
12/17/2014 11:08:39.404,2.988,1.192,0.55
12/17/2014 11:08:39.437,3,0.756,-0.017
12/17/2014 11:08:39.470,1.782,-0.269,0.32
12/17/2014 11:08:39.505,1.531,0.098,0.693
12/17/2014 11:08:39.538,-0.017,0.051,-0.13
12/17/2014 11:08:39.571,-2.013,-0.043,-0.065
12/17/2014 11:08:39.605,-0.025,-0.085,0.13
12/17/2014 11:08:39.638,0.552,0.282,0.524
12/17/2014 11:08:39.671,0.958,0.111,-0.775
12/17/2014 11:08:39.704,2.31,2.487,0.212
12/17/2014 11:08:39.737,1.941,-0.419,0.312
12/17/2014 11:08:39.770,2.628,-0.209,-0.654
12/17/2014 11:08:39.805,2.025,0.175,0.082
12/17/2014 11:08:39.838,1.992,0.103,0.32
12/17/2014 11:08:39.871,-0.54,0.449,0.693
12/17/2014 11:08:39.904,-0.155,0.068,0.056
12/17/2014 11:08:39.937,0.226,0.094,-0.268
12/17/2014 11:08:39.970,-0.063,-0.043,0.238
12/17/2014 11:08:40.005,0.025,-0.124,-0.061
12/17/2014 11:08:40.038,1.193,0.303,1.965
12/17/2014 11:08:40.071,3,1.915,0.589
12/17/2014 11:08:40.105,2.046,0.329,-0.537
12/17/2014 11:08:40.138,1.561,-0.329,0.312
12/17/2014 11:08:40.171,0.464,-0.056,0.303
12/17/2014 11:08:40.204,0.025,0.385,0.065
12/17/2014 11:08:40.237,-1.732,-0.073,0.087
12/17/2014 11:08:40.270,0.025,-0.282,0.346
12/17/2014 11:08:40.305,0.172,0.504,0.277
12/17/2014 11:08:40.338,0.611,-0.009,-0.156
12/17/2014 11:08:40.371,2.87,1.47,-0.727
12/17/2014 11:08:40.404,2.377,-0.568,0.498
12/17/2014 11:08:40.437,2.155,0.299,-0.965
12/17/2014 11:08:40.470,3,1.073,-0.602
12/17/2014 11:08:40.505,1.958,-0.577,0.342
12/17/2014 11:08:40.538,-0.326,0.645,0.476
12/17/2014 11:08:40.571,-0.339,0.107,0.048
12/17/2014 11:08:40.605,0.28,0.179,-0.035
12/17/2014 11:08:40.638,-0.08,-0.034,0.134
12/17/2014 11:08:40.671,0,-0.038,0.429
12/17/2014 11:08:40.704,1.67,0.38,0.991
12/17/2014 11:08:40.737,3,1.539,1.152
12/17/2014 11:08:40.770,2.473,0.141,-0.113
12/17/2014 11:08:40.805,1.464,-0.261,0.346
12/17/2014 11:08:40.838,0.774,0.188,0.849
12/17/2014 11:08:40.871,-0.218,0.124,-0.091
12/17/2014 11:08:40.904,-1.649,0.124,-0.026
12/17/2014 11:08:40.937,0.502,-0.064,-0.052
12/17/2014 11:08:40.970,-0.184,0.282,0.307
12/17/2014 11:08:41.005,0.941,1.086,1.403
12/17/2014 11:08:41.038,0.678,-0.397,0.355
12/17/2014 11:08:41.071,1.887,-0.124,-0.424
12/17/2014 11:08:41.105,2.297,-0.043,-0.528
12/17/2014 11:08:41.138,2.398,0.034,0.26
12/17/2014 11:08:41.171,1.146,0.107,0.558
12/17/2014 11:08:41.204,-0.326,0.487,0.416
12/17/2014 11:08:41.237,0.054,-0.047,-0.26
12/17/2014 11:08:41.270,0.126,0.047,-0.056
12/17/2014 11:08:41.305,0.159,0.038,0.065
12/17/2014 11:08:41.338,0.021,0.291,1
12/17/2014 11:08:41.371,3,0.269,0.628
12/17/2014 11:08:41.404,3,2.086,1.823
12/17/2014 11:08:41.437,2.159,-0.509,-0.043
12/17/2014 11:08:41.470,1.456,-0.731,0.429
12/17/2014 11:08:41.505,0.188,0.017,0.446
12/17/2014 11:08:41.538,-0.172,0.218,-0.26
12/17/2014 11:08:41.571,-1.699,-0.034,0.307
12/17/2014 11:08:41.605,0.862,-0.248,-0.394
12/17/2014 11:08:41.638,0.276,1.004,0.186
12/17/2014 11:08:41.671,0.502,0.222,-0.082
12/17/2014 11:08:41.704,2.385,0.953,-1.056
12/17/2014 11:08:41.737,2.833,-0.329,0.186
12/17/2014 11:08:41.772,2.209,0.171,-0.597
12/17/2014 11:08:41.805,1.799,0.457,0.117
12/17/2014 11:08:41.838,1.414,-0.487,0.212
12/17/2014 11:08:41.871,-0.402,0.509,0.268
12/17/2014 11:08:41.904,-0.134,0.222,-0.082
12/17/2014 11:08:41.937,0.105,0.073,-0.069
12/17/2014 11:08:41.971,0.038,0.043,0.074
12/17/2014 11:08:42.005,-0.096,0.299,0.489
12/17/2014 11:08:42.038,2.297,0.004,0.978
12/17/2014 11:08:42.072,3,2.145,0.896
12/17/2014 11:08:42.105,2.142,0.051,-0.177
12/17/2014 11:08:42.138,1.318,-0.607,0.411
12/17/2014 11:08:42.171,0.008,0.192,-0.165
12/17/2014 11:08:42.204,-0.046,0.124,-0.065
12/17/2014 11:08:42.237,-1.435,0.201,-0.104
12/17/2014 11:08:42.272,0.176,-0.094,0.186
12/17/2014 11:08:42.305,-0.004,0.457,0.017
12/17/2014 11:08:42.338,0.368,0.62,1.26
12/17/2014 11:08:42.371,1.335,0.107,-0.199
12/17/2014 11:08:42.404,2.347,0.124,-0.152
12/17/2014 11:08:42.437,2.193,0.299,-0.333
12/17/2014 11:08:42.471,2.318,1.363,-1.559
12/17/2014 11:08:42.505,0.736,-0.252,0.186
12/17/2014 11:08:42.538,-0.297,0.436,0.255
12/17/2014 11:08:42.572,0.155,0.051,-0.277
12/17/2014 11:08:42.605,0.138,0.124,0.074
12/17/2014 11:08:42.638,0.134,0.004,0.017
12/17/2014 11:08:42.671,0.071,0.504,1.351
12/17/2014 11:08:42.704,3,0.252,0.416
12/17/2014 11:08:42.737,3,1.906,2.498
12/17/2014 11:08:42.772,1.879,-0.603,-0.268
12/17/2014 11:08:42.805,1.41,-0.868,0.372
12/17/2014 11:08:42.838,0.134,0.227,-0.411
12/17/2014 11:08:42.871,-0.142,0.419,-0.052
12/17/2014 11:08:42.904,-1.686,-0.034,0.195
12/17/2014 11:08:42.937,0.561,-0.094,-0.052
12/17/2014 11:08:42.971,-0.075,0.577,0.104
12/17/2014 11:08:43.005,0.883,-0.141,-0.394
12/17/2014 11:08:43.038,3,1.457,-0.675
12/17/2014 11:08:43.072,2.795,-0.419,0.619
12/17/2014 11:08:43.105,2.339,0.132,-0.571
12/17/2014 11:08:43.138,2.582,1.073,-0.723
12/17/2014 11:08:43.171,1.87,-0.132,0.156
12/17/2014 11:08:43.204,-0.23,-0.269,0.719
12/17/2014 11:08:43.237,-0.402,0.376,0.104
12/17/2014 11:08:43.272,0.297,0.35,-0.03
12/17/2014 11:08:43.305,-0.134,0.004,0.03
12/17/2014 11:08:43.338,-0.054,-0.179,0.13
12/17/2014 11:08:43.371,1.598,0.423,1.662
12/17/2014 11:08:43.404,3,1.829,0.753
12/17/2014 11:08:43.437,2.343,0.568,-0.186
12/17/2014 11:08:43.471,1.841,-0.504,0.325
12/17/2014 11:08:43.505,1.28,-0.111,-0.173
12/17/2014 11:08:43.538,-0.096,0.427,0.134
12/17/2014 11:08:43.572,-1.146,-0.312,-0.394
12/17/2014 11:08:43.605,-0.615,-0.004,0.455
12/17/2014 11:08:43.638,0.707,0.252,0.095
12/17/2014 11:08:43.671,0.941,0.329,-0.494
12/17/2014 11:08:43.704,1.59,1.274,0.121
12/17/2014 11:08:43.737,1.448,-0.427,0.658
12/17/2014 11:08:43.772,2.523,0.094,-0.152
12/17/2014 11:08:43.805,1.67,0.299,0.372
12/17/2014 11:08:43.838,1.603,0.205,0.065
12/17/2014 11:08:43.871,0.05,-0.389,0.649
12/17/2014 11:08:43.904,-0.448,0.222,0.165
12/17/2014 11:08:43.937,0.201,0.222,-0.113
12/17/2014 11:08:43.971,-0.008,-0.021,0.13
12/17/2014 11:08:44.005,0.092,-0.004,0.182
12/17/2014 11:08:44.038,1.142,0.53,1.524
12/17/2014 11:08:44.072,2.929,1.539,0.9
12/17/2014 11:08:44.105,2.54,0.688,-0.052
12/17/2014 11:08:44.138,1.958,-0.282,0.333
12/17/2014 11:08:44.171,0.996,-0.081,-0.234
12/17/2014 11:08:44.204,0.017,0.269,0.104
12/17/2014 11:08:44.237,-1.008,0.081,-0.26
12/17/2014 11:08:44.272,-0.234,-0.124,0.299
12/17/2014 11:08:44.305,-0.008,0.013,-0.229
12/17/2014 11:08:44.338,0.979,0.252,0.29
12/17/2014 11:08:44.371,2.398,1.107,-1.087
12/17/2014 11:08:44.404,2.511,-0.038,0.195
12/17/2014 11:08:44.437,1.841,0.53,-0.628
12/17/2014 11:08:44.471,2.502,0.372,-0.494
12/17/2014 11:08:44.505,1.803,0.051,-0.286
12/17/2014 11:08:44.538,-0.322,-0.41,0.749
12/17/2014 11:08:44.572,-0.326,0.201,0
12/17/2014 11:08:44.605,0.105,0.321,-0.065
12/17/2014 11:08:44.638,0.13,0.137,0.126
12/17/2014 11:08:44.671,0.1,-0.141,0.035
12/17/2014 11:08:44.704,0.887,0.791,2.385
12/17/2014 11:08:44.737,2.657,1.898,0.437
12/17/2014 11:08:44.772,2.753,0.637,-0.143
12/17/2014 11:08:44.805,1.824,-0.538,0.238
12/17/2014 11:08:44.838,1.247,0.013,-0.186
12/17/2014 11:08:44.871,-0.033,0.286,-0.052
12/17/2014 11:08:44.904,-1.406,-0.013,-0.303
12/17/2014 11:08:44.937,-0.448,0.004,0.355
12/17/2014 11:08:44.971,0.774,0.329,-0.13
12/17/2014 11:08:45.005,1.046,0.034,-0.541
12/17/2014 11:08:45.038,1.201,1.103,0.511
12/17/2014 11:08:45.072,2.025,-0.325,0.346
12/17/2014 11:08:45.105,2.569,0.376,-0.403
12/17/2014 11:08:45.138,0.59,0.141,0.035
12/17/2014 11:08:45.171,1.979,-0.201,0.195
12/17/2014 11:08:45.204,0.075,-0.513,0.649
12/17/2014 11:08:45.237,-0.381,0.162,-0.069
12/17/2014 11:08:45.272,0.176,0.299,-0.039
12/17/2014 11:08:45.305,-0.13,-0.141,0.216
12/17/2014 11:08:45.338,0.038,-0.201,0.156
12/17/2014 11:08:45.371,0.937,0.838,1.732
12/17/2014 11:08:45.404,2.937,1.184,0.688
12/17/2014 11:08:45.437,3,0.564,0.147
12/17/2014 11:08:45.471,1.967,-0.124,0.437
12/17/2014 11:08:45.505,1.201,0.269,-0.095
12/17/2014 11:08:45.538,0.05,0.188,0.186
12/17/2014 11:08:45.572,-1.184,-0.162,-0.541
12/17/2014 11:08:45.605,-0.64,-0.252,0.247
12/17/2014 11:08:45.638,0.611,0.056,0.095
12/17/2014 11:08:45.671,0.946,0.406,-0.442
12/17/2014 11:08:45.704,-0.293,0.35,1.745
12/17/2014 11:08:45.737,1.339,0.026,-0.45
12/17/2014 11:08:45.772,2.494,0.269,-0.433
12/17/2014 11:08:45.805,1.799,0.081,-0.364
12/17/2014 11:08:45.838,1.736,0.372,-1.204
12/17/2014 11:08:45.871,-0.205,-0.342,-0.104
12/17/2014 11:08:45.904,-0.623,0.479,0.316
12/17/2014 11:08:45.937,0.28,0.239,-0.229
12/17/2014 11:08:45.971,-0.054,-0.051,0
12/17/2014 11:08:46.005,0.134,-0.128,0.117
12/17/2014 11:08:46.038,0.172,0.406,1.273
12/17/2014 11:08:46.072,3,0.389,0.065
12/17/2014 11:08:46.105,3,1.658,2.013
12/17/2014 11:08:46.138,2.398,-0.222,0.035
12/17/2014 11:08:46.171,1.552,-0.222,0.255
12/17/2014 11:08:46.204,-0.268,0.231,0.697
12/17/2014 11:08:46.237,-0.126,0.026,-0.165
12/17/2014 11:08:46.272,-1.552,0.329,-0.004
12/17/2014 11:08:46.305,0.883,0.077,-0.165
12/17/2014 11:08:46.338,-0.218,0.094,0.355
12/17/2014 11:08:46.371,0.167,-0.124,-0.082
12/17/2014 11:08:46.404,2.82,1.201,-0.784
12/17/2014 11:08:46.437,2.59,0.073,0.532
12/17/2014 11:08:46.471,2.435,0.363,-0.312
12/17/2014 11:08:46.505,2.46,0.568,-0.714
12/17/2014 11:08:46.538,1.619,0.731,-0.987
12/17/2014 11:08:46.572,0.172,-0.504,0.619
12/17/2014 11:08:46.605,-0.49,0.47,0.121
12/17/2014 11:08:46.638,0.247,-0.017,-0.091
12/17/2014 11:08:46.671,-0.054,0.043,0.095
12/17/2014 11:08:46.704,0.155,-0.038,0.056
12/17/2014 11:08:46.737,1.368,0.786,1.602
12/17/2014 11:08:46.772,3,0.885,0.974
12/17/2014 11:08:46.805,2.398,0.658,-0.121
12/17/2014 11:08:46.838,1.649,-0.064,0.147
12/17/2014 11:08:46.871,1.184,0.265,-0.429
12/17/2014 11:08:46.904,-0.017,0.051,-0.173
12/17/2014 11:08:46.937,-1.276,-0.103,-0.511
12/17/2014 11:08:46.971,-0.31,-0.286,0.307
12/17/2014 11:08:47.005,0.51,0.171,-0.074
12/17/2014 11:08:47.038,0.791,0.201,-0.186
12/17/2014 11:08:47.072,3,2.047,-0.177
12/17/2014 11:08:47.105,2.481,-0.543,1
12/17/2014 11:08:47.138,2.142,0.321,-0.212
12/17/2014 11:08:47.171,2.155,1.073,-0.693
12/17/2014 11:08:47.204,0.498,-0.064,-0.065
12/17/2014 11:08:47.237,0.958,-0.885,0.208
12/17/2014 11:08:47.272,-0.339,0.466,0.286
12/17/2014 11:08:47.305,0.247,0.077,-0.082
12/17/2014 11:08:47.338,0.042,0.209,0.022
12/17/2014 11:08:47.371,0.067,-0.081,0.065
12/17/2014 11:08:47.404,0.427,0.667,1.753
12/17/2014 11:08:47.437,2.912,0.342,0.307
12/17/2014 11:08:47.471,3,1.838,1.338
12/17/2014 11:08:47.505,2.259,-0.299,0
12/17/2014 11:08:47.538,1.31,-0.846,0.338
12/17/2014 11:08:47.572,-0.025,0.265,0.697
12/17/2014 11:08:47.605,-0.013,0.179,-0.152
12/17/2014 11:08:47.638,-1.339,0.094,0.126
12/17/2014 11:08:47.671,0.653,0.004,-0.182
12/17/2014 11:08:47.704,-0.1,0.487,0.147
12/17/2014 11:08:47.737,0.28,0.312,0.576
12/17/2014 11:08:47.772,1.979,0.85,-0.805
12/17/2014 11:08:47.805,2.385,-0.111,-0.104
12/17/2014 11:08:47.838,2.368,0.299,-0.381
12/17/2014 11:08:47.871,2.067,0.209,0.156
12/17/2014 11:08:47.904,1.473,-0.231,0.212
12/17/2014 11:08:47.937,-0.54,0.068,0.346
12/17/2014 11:08:47.971,-0.318,0.081,-0.16
12/17/2014 11:08:48.005,0.339,0.265,0.052
12/17/2014 11:08:48.038,-0.054,0.06,0.026
12/17/2014 11:08:48.072,-0.054,0.013,0.052
12/17/2014 11:08:48.105,1.289,0.517,1.662
12/17/2014 11:08:48.138,2.803,2.094,0.944
12/17/2014 11:08:48.171,2.385,0.496,-0.143
12/17/2014 11:08:48.204,2.046,-0.372,0.225
12/17/2014 11:08:48.237,1.222,-0.111,-0.16
12/17/2014 11:08:48.272,-0.063,0.449,0.779
12/17/2014 11:08:48.305,-0.464,-0.291,-0.325
12/17/2014 11:08:48.338,-0.837,-0.103,0.195
12/17/2014 11:08:48.371,0.644,0.137,-0.16
12/17/2014 11:08:48.404,1.008,0.368,-0.333
12/17/2014 11:08:48.437,0.347,0.885,1.511
12/17/2014 11:08:48.471,1.582,0.321,0.381
12/17/2014 11:08:48.505,2.398,0.419,-0.104
12/17/2014 11:08:48.538,1.858,0.675,-0.701
12/17/2014 11:08:48.572,0.929,0.12,-0.26
12/17/2014 11:08:48.605,1.105,-0.603,-0.156
12/17/2014 11:08:48.638,-0.54,0.41,0.035
12/17/2014 11:08:48.671,-0.126,-0.073,-0.069
12/17/2014 11:08:48.704,0.025,0.389,0.117
12/17/2014 11:08:48.737,-0.109,-0.013,-0.061
12/17/2014 11:08:48.772,-0.017,0.064,-0.052
12/17/2014 11:08:48.805,1.67,0.517,1.697
12/17/2014 11:08:48.838,2.649,1.966,0.32
12/17/2014 11:08:48.871,3,0.35,0.056
12/17/2014 11:08:48.904,1.992,-0.603,0.346
12/17/2014 11:08:48.937,1.289,0.893,-0.333
12/17/2014 11:08:48.971,0.561,-0.256,0.203
12/17/2014 11:08:49.005,-0.669,-0.427,-0.152
12/17/2014 11:08:49.038,-0.753,0.15,0.095
12/17/2014 11:08:49.072,0.607,0.124,-0.281
12/17/2014 11:08:49.105,0.456,0.162,-0.143
12/17/2014 11:08:49.138,0.096,0.577,1.29
12/17/2014 11:08:49.171,1.31,0.231,-0.113
12/17/2014 11:08:49.204,2.427,0.256,-0.281
12/17/2014 11:08:49.237,2.201,0.252,-0.403
12/17/2014 11:08:49.272,2.502,1.073,-0.814
12/17/2014 11:08:49.305,1.142,-0.128,0.147
12/17/2014 11:08:49.338,-0.469,0.231,0.186
12/17/2014 11:08:49.371,-0.138,0.081,-0.113
12/17/2014 11:08:49.404,0.184,0.299,-0.009
12/17/2014 11:08:49.437,-0.1,-0.141,0.026
12/17/2014 11:08:49.471,-0.054,-0.081,0.134
12/17/2014 11:08:49.505,1.67,0.607,0.9
12/17/2014 11:08:49.538,2.979,1.846,0.87
12/17/2014 11:08:49.572,2.481,0.363,-0.126
12/17/2014 11:08:49.605,2.226,-0.581,0.225
12/17/2014 11:08:49.638,1.172,0.013,-0.143
12/17/2014 11:08:49.671,-0.23,0.538,0.732
12/17/2014 11:08:49.704,-0.038,0.004,-0.372
12/17/2014 11:08:49.737,-1.218,0.09,0.333
12/17/2014 11:08:49.772,0.975,-0.081,-0.242
12/17/2014 11:08:49.805,0.594,0.321,-0.433
12/17/2014 11:08:49.838,1.502,1.056,0.719
12/17/2014 11:08:49.871,1.142,-0.222,0.216
12/17/2014 11:08:49.904,2.096,0.479,-0.281
12/17/2014 11:08:49.937,2.259,0.932,-0.584
12/17/2014 11:08:49.971,1.084,-0.073,0.563
12/17/2014 11:08:50.005,1.264,-0.748,-0.065
12/17/2014 11:08:50.038,-0.31,0.231,-0.009
12/17/2014 11:08:50.072,-0.398,0.312,-0.052
12/17/2014 11:08:50.105,0.222,0.333,0
12/17/2014 11:08:50.138,0.121,0.051,-0.091
12/17/2014 11:08:50.171,-0.113,-0.231,0.069
12/17/2014 11:08:50.204,1.598,0.167,1.671
12/17/2014 11:08:50.237,2.912,2.453,1.104
12/17/2014 11:08:50.272,2.155,1.094,-0.177
12/17/2014 11:08:50.305,1.912,-0.538,0.286
12/17/2014 11:08:50.338,1.008,-0.53,0.087
12/17/2014 11:08:50.371,0.243,0.111,0.277
12/17/2014 11:08:50.404,-0.669,0.017,-0.277
12/17/2014 11:08:50.437,-0.824,-0.056,0.225
12/17/2014 11:08:50.471,0.812,0.141,-0.307
12/17/2014 11:08:50.505,0.46,0.397,-0.199
12/17/2014 11:08:50.538,0.096,0.427,1.433
12/17/2014 11:08:50.572,2.025,0.073,0.346
12/17/2014 11:08:50.605,2.226,0.239,-0.052
12/17/2014 11:08:50.638,1.795,0.727,-0.143
12/17/2014 11:08:50.671,2.113,0.38,-0.152
12/17/2014 11:08:50.704,1.113,-0.282,0.104
12/17/2014 11:08:50.737,-0.339,-0.269,0.312
12/17/2014 11:08:50.772,-0.402,0.128,-0.16
12/17/2014 11:08:50.805,0.339,0.419,0.056
12/17/2014 11:08:50.838,-0.126,-0.158,-0.039
12/17/2014 11:08:50.871,-0.1,0.111,0.338
12/17/2014 11:08:50.904,1.833,0.517,0.948
12/17/2014 11:08:50.937,3,1.808,0.779
12/17/2014 11:08:50.971,2.414,0.239,-0.039
12/17/2014 11:08:51.005,1.967,-0.47,0.165
12/17/2014 11:08:51.038,1.247,0.132,-0.182
12/17/2014 11:08:51.072,-0.222,0.415,0.55
12/17/2014 11:08:51.105,-0.243,-0.342,-0.532
12/17/2014 11:08:51.138,-1.193,0.231,0.446
12/17/2014 11:08:51.171,0.912,-0.103,-0.29
12/17/2014 11:08:51.204,0.749,0.265,-0.152
12/17/2014 11:08:51.237,0.264,0.637,1.26
12/17/2014 11:08:51.272,1.824,0.188,0.468
12/17/2014 11:08:51.305,2.096,0.427,-0.022
12/17/2014 11:08:51.338,1.912,0.786,-0.29
12/17/2014 11:08:51.371,2.23,0.312,-0.03
12/17/2014 11:08:51.404,1.23,-0.727,-0.022
12/17/2014 11:08:51.437,0.134,0.188,0.299
12/17/2014 11:08:51.471,-0.213,0.269,0.052
12/17/2014 11:08:51.505,0.184,0.278,-0.16
12/17/2014 11:08:51.538,-0.021,-0.043,0.082
12/17/2014 11:08:51.572,0.021,-0.252,0.035
12/17/2014 11:08:51.605,0.912,0.705,2.004
12/17/2014 11:08:51.638,2.9,1.53,0.606
12/17/2014 11:08:51.671,3,0.718,0.849
12/17/2014 11:08:51.704,1.967,-0.111,0.126
12/17/2014 11:08:51.737,1.251,-0.047,0.147
12/17/2014 11:08:51.772,0.54,0.35,0.528
12/17/2014 11:08:51.805,-0.326,-0.064,-0.342
12/17/2014 11:08:51.838,-1.418,-0.004,0.19
12/17/2014 11:08:51.871,0.782,-0.145,-0.229
12/17/2014 11:08:51.904,-0.222,0.688,-0.03
12/17/2014 11:08:51.937,0.314,0.103,0.528
12/17/2014 11:08:51.971,3,0.906,-0.948
12/17/2014 11:08:52.005,2.126,-0.171,0.879
12/17/2014 11:08:52.038,2.038,0.718,-0.26
12/17/2014 11:08:52.072,2.465,0.756,-0.16
12/17/2014 11:08:52.105,1.611,-0.47,-0.004
12/17/2014 11:08:52.138,0.31,-0.192,-0.212
12/17/2014 11:08:52.171,-0.464,0.342,0.004
12/17/2014 11:08:52.204,0.172,0.073,-0.364
12/17/2014 11:08:52.237,-0.038,0.009,0.147
12/17/2014 11:08:52.272,0.259,-0.162,0.03
12/17/2014 11:08:52.305,0.377,0.727,2.082
12/17/2014 11:08:52.338,2.368,0.645,0.55
12/17/2014 11:08:52.371,3,1.893,1.965
12/17/2014 11:08:52.404,2.222,-0.068,0.039
12/17/2014 11:08:52.437,1.762,-0.274,0.255
12/17/2014 11:08:52.471,0.414,0.449,-0.909
12/17/2014 11:08:52.505,0.297,0.043,-0.268
12/17/2014 11:08:52.538,-1.318,-0.034,-0.199
12/17/2014 11:08:52.572,-0.326,-0.265,0.165
12/17/2014 11:08:52.605,0.799,0.282,-0.026
12/17/2014 11:08:52.638,0.996,-0.201,-0.312
12/17/2014 11:08:52.671,-0.41,0.547,1.762
12/17/2014 11:08:52.704,1.766,0.56,0.221
12/17/2014 11:08:52.737,1.941,0.205,0.165
12/17/2014 11:08:52.772,1.707,0.504,-0.186
12/17/2014 11:08:52.805,2.381,0.299,0.165
12/17/2014 11:08:52.838,1.184,-0.423,0.082
12/17/2014 11:08:52.871,0.213,-0.103,0.416
12/17/2014 11:08:52.904,-0.176,0.338,-0.113
12/17/2014 11:08:52.937,0.18,0.081,-0.113
12/17/2014 11:08:52.971,-0.084,0.073,0.004
12/17/2014 11:08:53.005,-0.025,0.132,0.156
12/17/2014 11:08:53.038,1.707,-0.103,1.069
12/17/2014 11:08:53.072,2.891,1.838,1.554
12/17/2014 11:08:53.105,2.142,0.517,0.074
12/17/2014 11:08:53.138,2.251,-0.111,0.398
12/17/2014 11:08:53.171,1.239,-0.141,0.104
12/17/2014 11:08:53.204,0.41,0.568,-0.853
12/17/2014 11:08:53.237,-0.444,-0.363,0.087
12/17/2014 11:08:53.272,-1.163,0.171,-0.342
12/17/2014 11:08:53.305,0.054,-0.047,-0.022
12/17/2014 11:08:53.338,0.657,0.457,-0.009
12/17/2014 11:08:53.371,-0.126,0.209,1.273
12/17/2014 11:08:53.404,2.289,0.551,-1.004
12/17/2014 11:08:53.437,1.9,-0.209,0.498
12/17/2014 11:08:53.471,1.707,0.517,-0.152
12/17/2014 11:08:53.505,2.511,0.953,0.056
12/17/2014 11:08:53.538,1.464,0.167,-0.1
12/17/2014 11:08:53.572,0.749,-0.825,0.333
12/17/2014 11:08:53.605,-0.096,0.312,0.355
12/17/2014 11:08:53.638,0.113,0.107,-0.234
12/17/2014 11:08:53.671,0.063,0.141,-0.017
12/17/2014 11:08:53.704,0.063,-0.175,-0.03
12/17/2014 11:08:53.737,0.025,0.538,1.524
12/17/2014 11:08:53.772,2.297,0.162,0.823
12/17/2014 11:08:53.805,3,1.769,1.329
12/17/2014 11:08:53.838,2.08,-0.013,0
12/17/2014 11:08:53.871,1.9,-0.427,0.346
12/17/2014 11:08:53.904,1.096,0.051,-0.052
12/17/2014 11:08:53.937,-0.172,0.487,0.307
12/17/2014 11:08:53.971,-0.385,-0.47,-0.121
12/17/2014 11:08:54.005,-0.987,0.141,0.004
12/17/2014 11:08:54.038,0.745,-0.051,-0.126
12/17/2014 11:08:54.072,0.841,0.132,-0.199
12/17/2014 11:08:54.105,1.67,1.274,0.628
12/17/2014 11:08:54.138,1.628,0.141,1.178
12/17/2014 11:08:54.171,1.87,0.393,0.017
12/17/2014 11:08:54.204,1.979,0.479,-0.082
12/17/2014 11:08:54.237,1.958,0.034,0.104
12/17/2014 11:08:54.272,1.184,-0.291,-0.026
12/17/2014 11:08:54.305,-0.025,-0.342,0.364
12/17/2014 11:08:54.338,-0.322,0.269,-0.069
12/17/2014 11:08:54.371,0.356,0.299,0.022
12/17/2014 11:08:54.404,-0.075,0.12,0.026
12/17/2014 11:08:54.437,-0.096,-0.077,0
12/17/2014 11:08:54.471,0.607,0.752,1.996
12/17/2014 11:08:54.505,2.649,0.748,0.528
12/17/2014 11:08:54.538,3,1.321,1.251
12/17/2014 11:08:54.572,2.017,-0.342,-0.065
12/17/2014 11:08:54.605,1.456,-0.667,0.225
12/17/2014 11:08:54.638,0.887,0.389,-0.403
12/17/2014 11:08:54.671,0.054,0.188,-0.069
12/17/2014 11:08:54.704,-0.87,0.107,-0.225
12/17/2014 11:08:54.737,-0.561,-0.261,0.286
12/17/2014 11:08:54.772,0.142,0.316,-0.013
12/17/2014 11:08:54.805,0.172,0.068,0.732
12/17/2014 11:08:54.838,2.611,1.034,-0.965
12/17/2014 11:08:54.871,2.046,-0.103,0.801
12/17/2014 11:08:54.904,1.803,0.56,-0.039
12/17/2014 11:08:54.937,2.552,0.868,-0.061
12/17/2014 11:08:54.971,1.594,0.282,-0.212
12/17/2014 11:08:55.005,1.184,-0.62,0.035
12/17/2014 11:08:55.038,0.071,0.376,0.091
12/17/2014 11:08:55.072,-0.192,0.021,-0.009
12/17/2014 11:08:55.105,0.163,0.483,-0.026
12/17/2014 11:08:55.138,-0.142,-0.141,-0.126
12/17/2014 11:08:55.171,-0.1,0.449,0.52
12/17/2014 11:08:55.204,2.259,0.239,0.658
12/17/2014 11:08:55.237,2.598,1.509,0.81
12/17/2014 11:08:55.272,2.297,0.47,0.087
12/17/2014 11:08:55.305,2.113,-0.222,0.316
12/17/2014 11:08:55.338,1.239,-0.004,-0.009
12/17/2014 11:08:55.371,0.025,0.598,0.117
12/17/2014 11:08:55.404,-0.289,-0.41,-0.251
12/17/2014 11:08:55.437,-1.126,0.141,0.048
12/17/2014 11:08:55.471,0.678,-0.128,-0.242
12/17/2014 11:08:55.505,1.025,0.47,-0.221
12/17/2014 11:08:55.538,0.686,0.876,1.017
12/17/2014 11:08:55.572,1.435,0.094,0.87
12/17/2014 11:08:55.605,1.64,0.419,0.281
12/17/2014 11:08:55.638,1.774,0.628,-0.16
12/17/2014 11:08:55.671,2.418,0.265,0
12/17/2014 11:08:55.704,1.326,-0.389,-0.052
12/17/2014 11:08:55.737,0.623,-0.47,0.377
12/17/2014 11:08:55.772,-0.075,0.419,0.156
12/17/2014 11:08:55.805,0.126,0.03,0.035
12/17/2014 11:08:55.838,0.067,0.291,0.065
12/17/2014 11:08:55.871,-0.126,-0.051,-0.1
12/17/2014 11:08:55.904,0.657,0.62,1.814
12/17/2014 11:08:55.937,2.958,0.868,0.468
12/17/2014 11:08:55.971,3,1.218,1.442
12/17/2014 11:08:56.005,1.921,-0.111,-0.026
12/17/2014 11:08:56.038,1.67,-0.239,0.238
12/17/2014 11:08:56.072,0.891,0.372,-0.173
12/17/2014 11:08:56.105,-0.276,0.321,0.719
12/17/2014 11:08:56.138,-0.385,-0.261,-0.303
12/17/2014 11:08:56.171,-0.883,0.021,0.286
12/17/2014 11:08:56.204,0.883,0.192,-0.281
12/17/2014 11:08:56.237,0.255,0.321,0.883
12/17/2014 11:08:56.272,2.561,0.996,-0.775
12/17/2014 11:08:56.305,1.774,-0.312,0.576
12/17/2014 11:08:56.338,1.736,0.406,0.056
12/17/2014 11:08:56.371,2.268,0.838,0
12/17/2014 11:08:56.404,1.49,0.44,-0.152
12/17/2014 11:08:56.437,1.075,-0.423,0.052
12/17/2014 11:08:56.471,0.126,0.239,-0.069
12/17/2014 11:08:56.505,-0.243,-0.047,-0.009
12/17/2014 11:08:56.538,0.243,0.38,0.017
12/17/2014 11:08:56.572,-0.021,-0.085,-0.13
12/17/2014 11:08:56.605,-0.038,0.56,1.351
12/17/2014 11:08:56.638,2.209,0.107,0.437
12/17/2014 11:08:56.671,3,1.53,1.242
12/17/2014 11:08:56.704,1.883,0.141,-0.212
12/17/2014 11:08:56.737,2.209,-0.41,0.364
12/17/2014 11:08:56.772,1.096,0.073,0.065
12/17/2014 11:08:56.805,0.305,0.748,-0.918
12/17/2014 11:08:56.838,-0.297,-0.274,-0.277
12/17/2014 11:08:56.871,-0.782,0.325,-0.1
12/17/2014 11:08:56.904,0.28,-0.239,-0.143
12/17/2014 11:08:56.937,0.686,-0.004,-0.069
12/17/2014 11:08:56.971,1.444,1.248,0.177
12/17/2014 11:08:57.005,2.054,-0.034,1.078
12/17/2014 11:08:57.038,1.766,0.419,0.056
12/17/2014 11:08:57.072,1.87,0.479,-0.1
12/17/2014 11:08:57.105,1.766,0.132,0
12/17/2014 11:08:57.138,1.193,-0.355,0.117
12/17/2014 11:08:57.171,-0.105,0.15,-0.091
12/17/2014 11:08:57.204,-0.222,-0.004,-0.104
12/17/2014 11:08:57.237,0.356,0.201,0.017
12/17/2014 11:08:57.272,-0.067,0.038,-0.121
12/17/2014 11:08:57.305,-0.163,0.286,0.429
12/17/2014 11:08:57.338,2.259,0.372,0.662
12/17/2014 11:08:57.371,2.64,1.551,0.71
12/17/2014 11:08:57.404,2.172,0.239,0.225
12/17/2014 11:08:57.437,2.134,-0.35,0.255
12/17/2014 11:08:57.471,1.163,-0.171,0.052
12/17/2014 11:08:57.505,0.674,0.547,-0.541
12/17/2014 11:08:57.538,-0.523,-0.248,0.113
12/17/2014 11:08:57.572,-0.841,0.303,-0.009
12/17/2014 11:08:57.605,0.314,-0.291,-0.152
12/17/2014 11:08:57.638,0.753,0.295,-0.221
12/17/2014 11:08:57.671,0.64,0.735,1.009
12/17/2014 11:08:57.704,1.716,0.261,0.355
12/17/2014 11:08:57.737,1.941,0.547,0.121
12/17/2014 11:08:57.772,1.837,0.637,-0.221
12/17/2014 11:08:57.805,2.084,0.329,0.121
12/17/2014 11:08:57.838,1.142,-0.141,0.026
12/17/2014 11:08:57.871,0.473,-0.509,0.507
12/17/2014 11:08:57.904,-0.172,0.103,0.147
12/17/2014 11:08:57.937,0.172,0.179,-0.004
12/17/2014 11:08:57.971,-0.013,0.188,-0.069
12/17/2014 11:08:58.005,-0.134,-0.026,0.087
12/17/2014 11:08:58.038,1.569,0.389,1.087
12/17/2014 11:08:58.072,2.531,1.628,0.446
12/17/2014 11:08:58.105,2.736,0.868,1.009
12/17/2014 11:08:58.138,1.921,-0.269,0.104
12/17/2014 11:08:58.171,1.523,-0.577,0.19
12/17/2014 11:08:58.204,0.958,0.321,-0.143
12/17/2014 11:08:58.237,-0.418,0.209,0.55
12/17/2014 11:08:58.272,-0.28,0.094,-0.273
12/17/2014 11:08:58.305,-0.619,-0.098,0.095
12/17/2014 11:08:58.338,0.812,0.107,-0.061
12/17/2014 11:08:58.371,0.971,0.915,0.844
12/17/2014 11:08:58.404,1.657,0.124,0.628
12/17/2014 11:08:58.437,1.657,0.321,0.225
12/17/2014 11:08:58.471,1.502,0.547,-0.13
12/17/2014 11:08:58.505,2.268,0.53,-0.052
12/17/2014 11:08:58.538,1.398,0.034,-0.117
12/17/2014 11:08:58.572,0.971,-0.538,0.147
12/17/2014 11:08:58.605,0.113,0.171,0.242
12/17/2014 11:08:58.638,-0.126,0.141,0.147
12/17/2014 11:08:58.671,0.042,0.385,0
12/17/2014 11:08:58.704,-0.163,0.419,0.377
12/17/2014 11:08:58.737,1.494,0.449,0.433
12/17/2014 11:08:58.772,2.54,1.35,0.55
12/17/2014 11:08:58.805,2.494,0.179,0.346
12/17/2014 11:08:58.838,1.996,-0.222,0.074
12/17/2014 11:08:58.871,1.322,-0.295,-0.052
12/17/2014 11:08:58.904,0.711,0.496,-0.541
12/17/2014 11:08:58.937,-0.356,-0.291,0.165
12/17/2014 11:08:58.971,-0.598,0.449,-0.186
12/17/2014 11:08:59.005,0.025,-0.132,-0.082
12/17/2014 11:08:59.038,0.398,0.081,-0.039
12/17/2014 11:08:59.072,2.23,1.628,-0.061
12/17/2014 11:08:59.105,1.766,-0.312,0.896
12/17/2014 11:08:59.138,1.628,0.252,-0.026
12/17/2014 11:08:59.171,1.699,0.312,-0.087
12/17/2014 11:08:59.204,1.912,0.299,-0.022
12/17/2014 11:08:59.237,1.268,-0.179,-0.052
12/17/2014 11:08:59.272,0.766,-0.299,0.325
12/17/2014 11:08:59.305,-0.218,0.124,0.225
12/17/2014 11:08:59.338,0.243,0.35,0.186
12/17/2014 11:08:59.371,-0.08,0.132,-0.268
12/17/2014 11:08:59.404,-0.167,0.47,1.022
12/17/2014 11:08:59.437,2.096,0.269,0.177
12/17/2014 11:08:59.471,2.377,1.18,0.771
12/17/2014 11:08:59.505,1.941,0.15,0.035
12/17/2014 11:08:59.538,1.774,-0.389,0.147
12/17/2014 11:08:59.572,1.105,-0.261,0.017
12/17/2014 11:08:59.605,0.619,0.449,-0.195
12/17/2014 11:08:59.638,-0.448,0.034,0.338
12/17/2014 11:08:59.671,-0.527,0.389,0.082
12/17/2014 11:08:59.704,0.146,-0.141,-0.29
12/17/2014 11:08:59.737,0.464,0.376,0.606
12/17/2014 11:08:59.772,2.038,0.53,-0.554
12/17/2014 11:08:59.805,2.23,-0.064,0.165
12/17/2014 11:08:59.838,1.456,0.496,-0.372
12/17/2014 11:08:59.871,2.075,0.457,-0.126
12/17/2014 11:08:59.904,1.389,0.034,-0.104
12/17/2014 11:08:59.937,1.084,-0.385,0.126
12/17/2014 11:08:59.971,0.054,0.034,0.247
