------------ Data File Created By ActiGraph GT3X+ ActiLife v6.11.5 Firmware v1.3.0 date format M/d/yyyy at 80 Hz  Filter Normal -----------
Serial Number: MOS2A45130448
Start Time 11:08:00
Start Date 12/17/2014
Epoch Period (hh:mm:ss) 00:00:00
Download Time 11:08:59
Download Date 12/17/2014
Current Memory Address: 0
Current Battery Voltage: 4.19     Mode = 12
--------------------------------------------------
Timestamp,Accelerometer X,Accelerometer Y,Accelerometer Z
12/17/2014 11:08:00.002,-0.031,-0.602,0.07
12/17/2014 11:08:00.013,-0.008,-0.387,-0.113
12/17/2014 11:08:00.026,0.012,-0.109,-0.355
12/17/2014 11:08:00.039,0.063,0.078,-0.285
12/17/2014 11:08:00.052,0.074,0.305,0.023
12/17/2014 11:08:00.063,-0.164,0.793,-0.109
12/17/2014 11:08:00.076,-0.332,1.277,-0.539
12/17/2014 11:08:00.088,0.031,1.352,-0.613
12/17/2014 11:08:00.101,0.223,2.316,0.09
12/17/2014 11:08:00.114,-0.051,3,0.359
12/17/2014 11:08:00.127,-0.512,3,0.121
12/17/2014 11:08:00.138,-0.156,2.535,-0.254
12/17/2014 11:08:00.151,0.098,2.066,-0.254
12/17/2014 11:08:00.164,0.203,1.824,-0.215
12/17/2014 11:08:00.177,0.25,1.848,-0.094
12/17/2014 11:08:00.188,0.336,2.184,-0.027
12/17/2014 11:08:00.201,0.473,2.375,0.207
12/17/2014 11:08:00.213,0.383,2.457,0.496
12/17/2014 11:08:00.226,0.109,2.164,0.613
12/17/2014 11:08:00.239,-0.203,1.746,0.453
12/17/2014 11:08:00.252,-0.273,1.305,0.32
12/17/2014 11:08:00.263,-0.27,0.824,0.164
12/17/2014 11:08:00.276,-0.266,0.398,-0.066
12/17/2014 11:08:00.289,-0.164,-0.039,-0.234
12/17/2014 11:08:00.302,-0.004,-0.262,-0.27
12/17/2014 11:08:00.313,0.031,-0.457,-0.246
12/17/2014 11:08:00.326,0.141,-0.684,-0.227
12/17/2014 11:08:00.338,0.227,-0.789,-0.207
12/17/2014 11:08:00.351,0.316,-0.84,-0.176
12/17/2014 11:08:00.364,0.297,-0.762,-0.16
12/17/2014 11:08:00.377,0.156,-0.637,-0.125
12/17/2014 11:08:00.388,0.004,-0.449,-0.086
12/17/2014 11:08:00.401,-0.07,-0.148,-0.137
12/17/2014 11:08:00.414,0.055,0.043,-0.344
12/17/2014 11:08:00.427,0.328,0.242,-0.801
12/17/2014 11:08:00.438,0.406,0.438,-1.277
12/17/2014 11:08:00.451,0.004,1.223,-1.129
12/17/2014 11:08:00.463,0.488,2.988,0.297
12/17/2014 11:08:00.476,1.316,3,1.422
12/17/2014 11:08:00.489,1.316,3,0.484
12/17/2014 11:08:00.502,0.578,3,-0.012
12/17/2014 11:08:00.513,0.133,2.684,0.074
12/17/2014 11:08:00.526,-0.23,2.426,0.18
12/17/2014 11:08:00.539,-0.398,2.398,0.27
12/17/2014 11:08:00.552,-0.551,2.359,0.191
12/17/2014 11:08:00.563,-0.516,2.137,0.16
12/17/2014 11:08:00.576,-0.293,1.781,0.039
12/17/2014 11:08:00.588,-0.105,1.398,-0.105
12/17/2014 11:08:00.601,0.051,1.039,-0.055
12/17/2014 11:08:00.614,0.223,0.641,0.066
12/17/2014 11:08:00.627,0.316,0.273,0.059
12/17/2014 11:08:00.638,0.262,-0.125,0.047
12/17/2014 11:08:00.651,0.008,-0.449,-0.246
12/17/2014 11:08:00.664,-0.137,-0.73,-0.461
12/17/2014 11:08:00.677,0.098,-1.113,-0.406
12/17/2014 11:08:00.688,0.078,-1.102,-0.129
12/17/2014 11:08:00.701,0.059,-0.832,0.105
12/17/2014 11:08:00.713,0.094,-0.734,0.121
12/17/2014 11:08:00.726,0.125,-0.441,-0.191
12/17/2014 11:08:00.739,0.039,-0.156,-0.34
12/17/2014 11:08:00.752,0.031,0.086,-0.211
12/17/2014 11:08:00.763,-0.203,0.703,-0.465
12/17/2014 11:08:00.776,-0.234,1.348,-0.844
12/17/2014 11:08:00.789,0.379,1.449,-0.379
12/17/2014 11:08:00.802,0.512,2.398,0.492
12/17/2014 11:08:00.813,-0.438,3,0.613
12/17/2014 11:08:00.826,-0.754,2.859,0.082
12/17/2014 11:08:00.838,-0.523,2.434,-0.242
12/17/2014 11:08:00.851,-0.125,2.191,-0.242
12/17/2014 11:08:00.864,0.059,2.094,-0.125
12/17/2014 11:08:00.877,0.176,2.023,-0.031
12/17/2014 11:08:00.888,0.363,2.113,-0.023
12/17/2014 11:08:00.901,0.535,2.234,0.137
12/17/2014 11:08:00.914,0.461,2.18,0.371
12/17/2014 11:08:00.927,0.191,2.051,0.488
12/17/2014 11:08:00.938,-0.16,1.762,0.469
12/17/2014 11:08:00.951,-0.293,1.414,0.41
12/17/2014 11:08:00.963,-0.285,0.961,0.246
12/17/2014 11:08:00.976,-0.352,0.48,0.078
12/17/2014 11:08:00.989,-0.344,-0.023,-0.102
12/17/2014 11:08:01.002,-0.051,-0.328,-0.238
12/17/2014 11:08:01.013,0.152,-0.512,-0.316
12/17/2014 11:08:01.026,0.227,-0.723,-0.301
12/17/2014 11:08:01.039,0.281,-0.914,-0.141
12/17/2014 11:08:01.052,0.328,-0.98,-0.008
12/17/2014 11:08:01.063,0.266,-0.836,-0.055
12/17/2014 11:08:01.076,0.168,-0.563,-0.129
12/17/2014 11:08:01.088,0.086,-0.34,-0.199
12/17/2014 11:08:01.101,0.031,-0.125,-0.273
12/17/2014 11:08:01.114,0.145,0.055,-0.473
12/17/2014 11:08:01.127,0.469,0.254,-0.988
12/17/2014 11:08:01.138,0.18,0.496,-1.484
12/17/2014 11:08:01.151,-0.082,1.547,-1.09
12/17/2014 11:08:01.164,0.547,3,0.551
12/17/2014 11:08:01.177,1.383,3,1.371
12/17/2014 11:08:01.188,1.234,3,0.402
12/17/2014 11:08:01.201,0.504,3,-0.082
12/17/2014 11:08:01.213,0.043,2.613,0.016
12/17/2014 11:08:01.226,-0.383,2.316,0.168
12/17/2014 11:08:01.239,-0.621,2.203,0.242
12/17/2014 11:08:01.252,-0.645,2.27,0.184
12/17/2014 11:08:01.263,-0.555,2.164,0.195
12/17/2014 11:08:01.276,-0.371,1.887,0.172
12/17/2014 11:08:01.289,-0.09,1.605,0.035
12/17/2014 11:08:01.302,0.074,1.242,-0.074
12/17/2014 11:08:01.313,0.156,0.895,-0.055
12/17/2014 11:08:01.326,0.332,0.473,0.055
12/17/2014 11:08:01.338,0.305,-0.035,0.043
12/17/2014 11:08:01.351,0.133,-0.27,-0.078
12/17/2014 11:08:01.364,-0.066,-0.586,-0.281
12/17/2014 11:08:01.377,-0.004,-0.848,-0.387
12/17/2014 11:08:01.388,0.074,-1.109,-0.258
12/17/2014 11:08:01.401,0.008,-0.91,-0.063
12/17/2014 11:08:01.414,-0.012,-0.766,0.078
12/17/2014 11:08:01.427,0.078,-0.691,-0.035
12/17/2014 11:08:01.438,0.074,-0.41,-0.273
12/17/2014 11:08:01.451,0,-0.102,-0.254
12/17/2014 11:08:01.463,-0.172,0.375,-0.313
12/17/2014 11:08:01.476,-0.289,1.008,-0.668
12/17/2014 11:08:01.489,0.086,1.184,-0.57
12/17/2014 11:08:01.502,0.34,1.734,0.152
12/17/2014 11:08:01.513,-0.246,3,0.742
12/17/2014 11:08:01.526,-1.039,3,0.453
12/17/2014 11:08:01.539,-0.539,2.781,0.117
12/17/2014 11:08:01.552,0.039,2.18,-0.047
12/17/2014 11:08:01.563,0.266,1.879,-0.078
12/17/2014 11:08:01.576,0.277,1.805,-0.039
12/17/2014 11:08:01.588,0.426,2.02,0.004
12/17/2014 11:08:01.601,0.602,2.219,0.152
12/17/2014 11:08:01.614,0.613,2.313,0.398
12/17/2014 11:08:01.627,0.328,2.309,0.566
12/17/2014 11:08:01.638,-0.113,2.008,0.461
12/17/2014 11:08:01.651,-0.238,1.566,0.363
12/17/2014 11:08:01.664,-0.309,1.121,0.273
12/17/2014 11:08:01.677,-0.434,0.531,0.121
12/17/2014 11:08:01.688,-0.332,0.086,-0.094
12/17/2014 11:08:01.701,-0.086,-0.27,-0.266
12/17/2014 11:08:01.713,0.121,-0.418,-0.34
12/17/2014 11:08:01.726,0.211,-0.598,-0.285
12/17/2014 11:08:01.739,0.348,-0.766,-0.156
12/17/2014 11:08:01.752,0.375,-0.859,-0.082
12/17/2014 11:08:01.763,0.305,-0.785,-0.094
12/17/2014 11:08:01.776,0.113,-0.637,-0.125
12/17/2014 11:08:01.789,-0.039,-0.398,-0.145
12/17/2014 11:08:01.802,-0.121,-0.133,-0.203
12/17/2014 11:08:01.813,-0.012,0.055,-0.344
12/17/2014 11:08:01.826,0.395,0.223,-0.68
12/17/2014 11:08:01.838,0.48,0.355,-1.242
12/17/2014 11:08:01.851,0.02,1.063,-1.313
12/17/2014 11:08:01.864,0.344,2.68,-0.09
12/17/2014 11:08:01.877,1.148,3,1.438
12/17/2014 11:08:01.888,1.586,3,0.652
12/17/2014 11:08:01.901,0.859,3,-0.098
12/17/2014 11:08:01.914,0.285,2.684,0
12/17/2014 11:08:01.927,-0.078,2.32,0.148
12/17/2014 11:08:01.938,-0.332,2.223,0.242
12/17/2014 11:08:01.951,-0.563,2.277,0.184
12/17/2014 11:08:01.963,-0.711,2.219,0.133
12/17/2014 11:08:01.976,-0.641,1.945,0.113
12/17/2014 11:08:01.989,-0.379,1.578,-0.004
12/17/2014 11:08:02.002,-0.156,1.188,-0.059
12/17/2014 11:08:02.013,0.109,0.832,0.063
12/17/2014 11:08:02.026,0.207,0.363,0.086
12/17/2014 11:08:02.039,0.234,0.004,-0.027
12/17/2014 11:08:02.052,0.133,-0.363,-0.188
12/17/2014 11:08:02.063,0.105,-0.73,-0.418
12/17/2014 11:08:02.076,0.156,-1.117,-0.414
12/17/2014 11:08:02.088,0.16,-1.227,-0.25
12/17/2014 11:08:02.101,0.117,-0.992,-0.055
12/17/2014 11:08:02.114,0.121,-0.836,0.066
12/17/2014 11:08:02.127,0.242,-0.652,-0.035
12/17/2014 11:08:02.138,0.227,-0.203,-0.262
12/17/2014 11:08:02.151,0.148,0.215,-0.156
12/17/2014 11:08:02.164,0.023,0.523,-0.035
12/17/2014 11:08:02.177,-0.281,1.047,-0.523
12/17/2014 11:08:02.188,-0.078,1.285,-0.512
12/17/2014 11:08:02.201,0.395,1.949,0.137
12/17/2014 11:08:02.213,0.055,2.566,0.445
12/17/2014 11:08:02.226,-0.297,2.648,0.117
12/17/2014 11:08:02.239,-0.363,2.637,-0.215
12/17/2014 11:08:02.252,-0.309,2.434,-0.242
12/17/2014 11:08:02.263,-0.137,2.246,-0.207
12/17/2014 11:08:02.276,-0.094,2.109,-0.191
12/17/2014 11:08:02.289,-0.031,1.996,-0.152
12/17/2014 11:08:02.302,0.012,2.121,-0.027
12/17/2014 11:08:02.313,0.109,2.32,0.309
12/17/2014 11:08:02.326,-0.078,2.371,0.512
12/17/2014 11:08:02.338,-0.23,2.328,0.496
12/17/2014 11:08:02.351,-0.309,1.895,0.484
12/17/2014 11:08:02.364,-0.18,1.375,0.367
12/17/2014 11:08:02.377,-0.18,0.77,0.184
12/17/2014 11:08:02.388,-0.164,0.301,-0.152
12/17/2014 11:08:02.401,0.051,-0.137,-0.398
12/17/2014 11:08:02.414,0.289,-0.355,-0.441
12/17/2014 11:08:02.427,0.309,-0.469,-0.277
12/17/2014 11:08:02.438,0.301,-0.703,-0.07
12/17/2014 11:08:02.451,0.316,-0.93,0.027
12/17/2014 11:08:02.463,0.277,-1,-0.031
12/17/2014 11:08:02.476,0.125,-0.91,-0.098
12/17/2014 11:08:02.489,-0.035,-0.738,-0.109
12/17/2014 11:08:02.502,-0.109,-0.449,-0.145
12/17/2014 11:08:02.513,-0.063,-0.117,-0.332
12/17/2014 11:08:02.526,0.238,0.148,-0.66
12/17/2014 11:08:02.539,0.402,0.371,-1.105
12/17/2014 11:08:02.552,0.309,0.859,-1.078
12/17/2014 11:08:02.563,0.547,2.57,-0.27
12/17/2014 11:08:02.576,1.328,3,1.211
12/17/2014 11:08:02.588,1.758,3,0.805
12/17/2014 11:08:02.601,0.832,3,0.078
12/17/2014 11:08:02.614,0.273,2.512,-0.078
12/17/2014 11:08:02.627,-0.137,2.254,-0.074
12/17/2014 11:08:02.638,-0.422,2.32,0.137
12/17/2014 11:08:02.651,-0.625,2.41,0.234
12/17/2014 11:08:02.664,-0.746,2.367,0.371
12/17/2014 11:08:02.677,-0.648,1.938,0.313
12/17/2014 11:08:02.688,-0.453,1.609,0.137
12/17/2014 11:08:02.701,-0.332,1.219,0
12/17/2014 11:08:02.713,-0.164,0.762,0.086
12/17/2014 11:08:02.726,-0.09,0.254,0.059
12/17/2014 11:08:02.739,-0.152,-0.215,-0.188
12/17/2014 11:08:02.752,-0.086,-0.746,-0.496
12/17/2014 11:08:02.763,0.258,-1.164,-0.566
12/17/2014 11:08:02.776,0.398,-1.391,-0.363
12/17/2014 11:08:02.789,0.34,-1.184,-0.09
12/17/2014 11:08:02.802,0.137,-0.957,0.168
12/17/2014 11:08:02.813,0.207,-0.797,0.121
12/17/2014 11:08:02.826,0.203,-0.465,-0.199
12/17/2014 11:08:02.838,0.09,-0.008,-0.223
12/17/2014 11:08:02.851,0.117,0.391,-0.02
12/17/2014 11:08:02.864,-0.156,0.871,-0.289
12/17/2014 11:08:02.877,-0.184,1.227,-0.547
12/17/2014 11:08:02.888,0.406,1.27,-0.137
12/17/2014 11:08:02.901,0.227,2.086,0.328
12/17/2014 11:08:02.914,-0.539,2.516,0.078
12/17/2014 11:08:02.927,-0.813,2.559,-0.426
12/17/2014 11:08:02.938,-0.691,2.953,-0.145
12/17/2014 11:08:02.951,-0.254,2.871,0.16
12/17/2014 11:08:02.963,0.004,2.504,0.066
12/17/2014 11:08:02.976,0.102,2.078,-0.086
12/17/2014 11:08:02.989,0.289,1.98,-0.105
12/17/2014 11:08:03.002,0.32,2.137,0.074
12/17/2014 11:08:03.013,0.289,2.203,0.352
12/17/2014 11:08:03.026,0.199,2.145,0.367
12/17/2014 11:08:03.039,0.297,1.805,0.293
12/17/2014 11:08:03.052,0.344,1.363,0.27
12/17/2014 11:08:03.063,0.258,0.922,0.164
12/17/2014 11:08:03.076,0.164,0.477,-0.023
12/17/2014 11:08:03.088,0.145,0.031,-0.219
12/17/2014 11:08:03.101,0.129,-0.23,-0.273
12/17/2014 11:08:03.114,0.113,-0.602,-0.266
12/17/2014 11:08:03.127,0.184,-0.895,-0.25
12/17/2014 11:08:03.138,0.297,-1.008,-0.223
12/17/2014 11:08:03.151,0.426,-0.961,-0.156
12/17/2014 11:08:03.164,0.465,-0.859,-0.145
12/17/2014 11:08:03.177,0.348,-0.746,-0.164
12/17/2014 11:08:03.188,0.16,-0.586,-0.148
12/17/2014 11:08:03.201,0.074,-0.27,-0.195
12/17/2014 11:08:03.213,0.184,0.023,-0.453
12/17/2014 11:08:03.226,0.574,0.199,-0.887
12/17/2014 11:08:03.239,0.605,0.34,-1.301
12/17/2014 11:08:03.252,0.48,0.949,-1.129
12/17/2014 11:08:03.263,1.027,2.48,-0.012
12/17/2014 11:08:03.276,1.598,3,1.27
12/17/2014 11:08:03.289,1.461,3,0.934
12/17/2014 11:08:03.302,0.449,3,0.285
12/17/2014 11:08:03.313,-0.203,2.691,0.105
12/17/2014 11:08:03.326,-0.645,2.512,0.184
12/17/2014 11:08:03.338,-0.824,2.605,0.242
12/17/2014 11:08:03.351,-0.98,2.602,0.293
12/17/2014 11:08:03.364,-0.832,2.254,0.289
12/17/2014 11:08:03.377,-0.488,1.773,0.191
12/17/2014 11:08:03.388,-0.223,1.379,0.184
12/17/2014 11:08:03.401,-0.102,1.063,0.109
12/17/2014 11:08:03.414,-0.02,0.699,0.086
12/17/2014 11:08:03.427,0.152,0.258,0.121
12/17/2014 11:08:03.438,0.16,-0.242,-0.125
12/17/2014 11:08:03.451,0.258,-0.672,-0.496
12/17/2014 11:08:03.463,0.434,-1.305,-0.641
12/17/2014 11:08:03.476,0.359,-1.383,-0.375
12/17/2014 11:08:03.489,0.32,-1.09,-0.047
12/17/2014 11:08:03.502,0.289,-0.957,0.172
12/17/2014 11:08:03.513,0.121,-0.742,-0.02
12/17/2014 11:08:03.526,0.109,-0.332,-0.332
12/17/2014 11:08:03.539,0.059,-0.031,-0.281
12/17/2014 11:08:03.552,0.016,0.258,-0.16
12/17/2014 11:08:03.563,-0.172,0.859,-0.465
12/17/2014 11:08:03.576,0.02,1.129,-0.48
12/17/2014 11:08:03.588,0.48,1.152,-0.063
12/17/2014 11:08:03.601,0.324,2.105,0.32
12/17/2014 11:08:03.614,-0.551,2.676,0.176
12/17/2014 11:08:03.627,-1.156,2.543,-0.332
12/17/2014 11:08:03.638,-1.059,2.82,0
12/17/2014 11:08:03.651,-0.449,2.742,0.262
12/17/2014 11:08:03.664,-0.133,2.559,0.219
12/17/2014 11:08:03.677,0.066,2.234,0.176
12/17/2014 11:08:03.688,0.148,2.102,0.148
12/17/2014 11:08:03.701,0.383,2.156,0.273
12/17/2014 11:08:03.713,0.453,1.988,0.375
12/17/2014 11:08:03.726,0.418,1.891,0.418
12/17/2014 11:08:03.739,0.402,1.754,0.32
12/17/2014 11:08:03.752,0.395,1.496,0.359
12/17/2014 11:08:03.763,0.219,1.031,0.23
12/17/2014 11:08:03.776,0.141,0.547,0.039
12/17/2014 11:08:03.789,0.109,0.113,-0.09
12/17/2014 11:08:03.802,0.102,-0.242,-0.168
12/17/2014 11:08:03.813,0.184,-0.602,-0.238
12/17/2014 11:08:03.826,0.305,-0.902,-0.266
12/17/2014 11:08:03.838,0.434,-1.012,-0.262
12/17/2014 11:08:03.851,0.543,-0.969,-0.219
12/17/2014 11:08:03.864,0.531,-0.891,-0.18
12/17/2014 11:08:03.877,0.379,-0.762,-0.133
12/17/2014 11:08:03.888,0.238,-0.543,-0.16
12/17/2014 11:08:03.901,0.203,-0.203,-0.293
12/17/2014 11:08:03.914,0.504,0.074,-0.684
12/17/2014 11:08:03.927,1,0.195,-1.172
12/17/2014 11:08:03.938,0.793,0.48,-1.277
12/17/2014 11:08:03.951,0.914,1.914,-0.566
12/17/2014 11:08:03.963,1.242,3,1.129
12/17/2014 11:08:03.976,1.547,3,1.477
12/17/2014 11:08:03.989,0.453,3,0.543
12/17/2014 11:08:04.002,0.074,2.84,0.227
12/17/2014 11:08:04.013,-0.445,2.465,0.121
12/17/2014 11:08:04.026,-0.801,2.402,0.18
12/17/2014 11:08:04.039,-1.078,2.332,0.195
12/17/2014 11:08:04.052,-1.063,2.07,0.195
12/17/2014 11:08:04.063,-0.762,1.695,0.145
12/17/2014 11:08:04.076,-0.449,1.504,0.191
12/17/2014 11:08:04.088,-0.203,1.078,0.266
12/17/2014 11:08:04.101,0.008,0.57,0.332
12/17/2014 11:08:04.114,0.082,-0.09,0.172
12/17/2014 11:08:04.127,0.086,-0.504,-0.266
12/17/2014 11:08:04.138,0.102,-1.039,-0.637
12/17/2014 11:08:04.151,0.191,-1.465,-0.629
12/17/2014 11:08:04.164,0.059,-1.516,-0.242
12/17/2014 11:08:04.177,0.133,-1.27,0.066
12/17/2014 11:08:04.188,0.176,-1.023,0.113
12/17/2014 11:08:04.201,0.082,-0.508,-0.012
12/17/2014 11:08:04.213,0.168,-0.094,-0.141
12/17/2014 11:08:04.226,0.129,0.195,-0.066
12/17/2014 11:08:04.239,0,0.609,-0.398
12/17/2014 11:08:04.252,-0.02,1.313,-0.715
12/17/2014 11:08:04.263,0.652,1.277,-0.379
12/17/2014 11:08:04.276,0.875,2.242,0.301
12/17/2014 11:08:04.289,-0.34,3,0.469
12/17/2014 11:08:04.302,-1.051,2.887,-0.195
12/17/2014 11:08:04.313,-1.129,2.82,-0.176
12/17/2014 11:08:04.326,-0.422,2.578,-0.063
12/17/2014 11:08:04.338,-0.18,2.418,-0.141
12/17/2014 11:08:04.351,-0.078,2.086,-0.082
12/17/2014 11:08:04.364,0.125,1.984,-0.027
12/17/2014 11:08:04.377,0.355,2.098,0.094
12/17/2014 11:08:04.388,0.52,2.008,0.309
12/17/2014 11:08:04.401,0.496,1.914,0.234
12/17/2014 11:08:04.414,0.398,1.797,0.168
12/17/2014 11:08:04.427,0.32,1.5,0.219
12/17/2014 11:08:04.438,0.27,1.125,0.254
12/17/2014 11:08:04.451,0.121,0.613,0.145
12/17/2014 11:08:04.463,-0.105,0.094,-0.055
12/17/2014 11:08:04.476,-0.145,-0.238,-0.207
12/17/2014 11:08:04.489,-0.09,-0.523,-0.246
12/17/2014 11:08:04.502,0.008,-0.789,-0.234
12/17/2014 11:08:04.513,0.16,-0.906,-0.156
12/17/2014 11:08:04.526,0.301,-0.844,-0.035
12/17/2014 11:08:04.539,0.348,-0.703,0.023
12/17/2014 11:08:04.552,0.273,-0.594,-0.043
12/17/2014 11:08:04.563,0.133,-0.473,-0.066
12/17/2014 11:08:04.576,0.035,-0.352,-0.117
12/17/2014 11:08:04.588,0.129,-0.141,-0.332
12/17/2014 11:08:04.601,0.516,0.09,-0.766
12/17/2014 11:08:04.614,0.887,0.254,-1.188
12/17/2014 11:08:04.627,0.754,0.715,-1.203
12/17/2014 11:08:04.638,0.957,2.223,-0.523
12/17/2014 11:08:04.651,1.648,3,1.043
12/17/2014 11:08:04.664,1.922,3,0.906
12/17/2014 11:08:04.677,0.742,3,0.254
12/17/2014 11:08:04.688,0.223,2.633,0.215
12/17/2014 11:08:04.701,-0.281,2.227,0.051
12/17/2014 11:08:04.713,-0.484,2.254,0.117
12/17/2014 11:08:04.726,-0.73,2.23,0.133
12/17/2014 11:08:04.739,-0.813,2.184,0.301
12/17/2014 11:08:04.752,-0.68,1.832,0.25
12/17/2014 11:08:04.763,-0.418,1.5,0.039
12/17/2014 11:08:04.776,-0.082,1.059,0.16
12/17/2014 11:08:04.789,-0.047,0.586,0.137
12/17/2014 11:08:04.802,0.047,0.078,-0.008
12/17/2014 11:08:04.813,0.121,-0.434,-0.277
12/17/2014 11:08:04.826,0.188,-1.047,-0.598
12/17/2014 11:08:04.838,0.371,-1.406,-0.582
12/17/2014 11:08:04.851,0.293,-1.375,-0.234
12/17/2014 11:08:04.864,0.172,-1.012,0.066
12/17/2014 11:08:04.877,-0.023,-0.652,0.133
12/17/2014 11:08:04.888,-0.043,-0.512,0.055
12/17/2014 11:08:04.901,-0.031,-0.309,-0.129
12/17/2014 11:08:04.914,-0.078,0.012,-0.164
12/17/2014 11:08:04.927,-0.117,0.375,-0.055
12/17/2014 11:08:04.938,-0.242,0.758,-0.203
12/17/2014 11:08:04.951,-0.246,1.184,-0.516
12/17/2014 11:08:04.963,0.215,1.254,-0.422
12/17/2014 11:08:04.976,0.121,2.09,0.125
12/17/2014 11:08:04.989,-0.598,3,0.102
12/17/2014 11:08:05.002,-1.023,3,-0.133
12/17/2014 11:08:05.013,-0.598,3,0.078
12/17/2014 11:08:05.026,-0.066,2.578,0.066
12/17/2014 11:08:05.039,0.121,2.141,-0.094
12/17/2014 11:08:05.052,0.188,1.938,-0.195
12/17/2014 11:08:05.063,0.34,2.094,-0.066
12/17/2014 11:08:05.076,0.637,2.148,0.152
12/17/2014 11:08:05.088,0.637,2.262,0.285
12/17/2014 11:08:05.101,0.441,2.117,0.227
12/17/2014 11:08:05.114,0.313,1.82,0.215
12/17/2014 11:08:05.127,0.445,1.418,0.227
12/17/2014 11:08:05.138,0.355,0.695,-0.055
12/17/2014 11:08:05.151,0.141,0.051,-0.352
12/17/2014 11:08:05.164,0.219,-0.344,-0.402
12/17/2014 11:08:05.177,0.238,-0.617,-0.391
12/17/2014 11:08:05.188,0.281,-0.918,-0.191
12/17/2014 11:08:05.201,0.41,-1.133,0.035
12/17/2014 11:08:05.213,0.473,-1.109,0.129
12/17/2014 11:08:05.226,0.387,-0.941,0.066
12/17/2014 11:08:05.239,0.191,-0.703,-0.063
12/17/2014 11:08:05.252,0.035,-0.531,-0.184
12/17/2014 11:08:05.263,-0.008,-0.387,-0.219
12/17/2014 11:08:05.276,0.008,-0.125,-0.348
12/17/2014 11:08:05.289,0.25,0.188,-0.73
12/17/2014 11:08:05.302,0.609,0.414,-1.027
12/17/2014 11:08:05.313,0.52,0.824,-0.973
12/17/2014 11:08:05.326,0.793,2.379,-0.246
12/17/2014 11:08:05.338,1.531,3,1.094
12/17/2014 11:08:05.351,1.496,3,0.945
12/17/2014 11:08:05.364,0.422,3,0.395
12/17/2014 11:08:05.377,-0.113,2.469,0.133
12/17/2014 11:08:05.388,-0.758,2.539,0.02
12/17/2014 11:08:05.401,-0.965,2.645,0.145
12/17/2014 11:08:05.414,-1.094,2.582,0.273
12/17/2014 11:08:05.427,-0.836,2.063,0.375
12/17/2014 11:08:05.438,-0.414,1.652,0.234
12/17/2014 11:08:05.451,-0.066,1.301,0.055
12/17/2014 11:08:05.463,0.156,0.813,-0.004
12/17/2014 11:08:05.476,0.156,0.328,-0.074
12/17/2014 11:08:05.489,0.164,-0.066,-0.223
12/17/2014 11:08:05.502,0.219,-0.688,-0.52
12/17/2014 11:08:05.513,0.313,-1.199,-0.656
12/17/2014 11:08:05.526,0.355,-1.496,-0.473
12/17/2014 11:08:05.539,0.281,-1.195,-0.117
12/17/2014 11:08:05.552,0.164,-0.773,0.156
12/17/2014 11:08:05.563,0.141,-0.699,0.219
12/17/2014 11:08:05.576,0.164,-0.449,-0.07
12/17/2014 11:08:05.588,-0.02,-0.023,-0.266
12/17/2014 11:08:05.601,-0.039,0.352,-0.086
12/17/2014 11:08:05.614,-0.133,0.754,-0.227
12/17/2014 11:08:05.627,-0.191,1.203,-0.547
12/17/2014 11:08:05.638,0.262,1.262,-0.199
12/17/2014 11:08:05.651,0.273,1.762,0.277
12/17/2014 11:08:05.664,-0.566,2.348,0.02
12/17/2014 11:08:05.677,-1.078,2.73,-0.496
12/17/2014 11:08:05.688,-1.031,3,-0.238
12/17/2014 11:08:05.701,-0.449,2.871,0.105
12/17/2014 11:08:05.713,-0.039,2.508,-0.008
12/17/2014 11:08:05.726,0.094,2.098,-0.137
12/17/2014 11:08:05.739,0.273,1.887,-0.168
12/17/2014 11:08:05.752,0.395,2.191,0.063
12/17/2014 11:08:05.763,0.461,2.18,0.391
12/17/2014 11:08:05.776,0.465,2.086,0.457
12/17/2014 11:08:05.789,0.152,1.758,0.301
12/17/2014 11:08:05.802,-0.031,1.453,0.262
12/17/2014 11:08:05.813,-0.063,1.023,0.184
12/17/2014 11:08:05.826,0.094,0.586,0.023
12/17/2014 11:08:05.838,0.281,0.035,-0.16
12/17/2014 11:08:05.851,0.32,-0.293,-0.266
12/17/2014 11:08:05.864,0.305,-0.617,-0.313
12/17/2014 11:08:05.877,0.422,-0.949,-0.285
12/17/2014 11:08:05.888,0.637,-1.074,-0.234
12/17/2014 11:08:05.901,0.789,-1.043,-0.172
12/17/2014 11:08:05.914,0.703,-0.977,-0.137
12/17/2014 11:08:05.927,0.504,-0.836,-0.094
12/17/2014 11:08:05.938,0.293,-0.586,-0.094
12/17/2014 11:08:05.951,0.281,-0.293,-0.207
12/17/2014 11:08:05.963,0.414,-0.008,-0.496
12/17/2014 11:08:05.976,0.73,0.242,-0.988
12/17/2014 11:08:05.989,0.906,0.57,-1.164
12/17/2014 11:08:06.002,0.781,1.461,-0.715
12/17/2014 11:08:06.013,1.039,3,0.504
12/17/2014 11:08:06.026,1.543,3,1.277
12/17/2014 11:08:06.039,0.52,3,0.543
12/17/2014 11:08:06.052,-0.094,2.75,0.305
12/17/2014 11:08:06.063,-0.609,2.375,0.055
12/17/2014 11:08:06.076,-0.762,2.523,0.164
12/17/2014 11:08:06.088,-1.086,2.461,0.281
12/17/2014 11:08:06.101,-1.102,2.316,0.395
12/17/2014 11:08:06.114,-0.793,1.805,0.352
12/17/2014 11:08:06.127,-0.375,1.461,0.086
12/17/2014 11:08:06.138,-0.094,1,0.023
12/17/2014 11:08:06.151,0.043,0.594,0.105
12/17/2014 11:08:06.164,0.035,0.16,-0.012
12/17/2014 11:08:06.177,0.02,-0.336,-0.285
12/17/2014 11:08:06.188,0.117,-0.871,-0.625
12/17/2014 11:08:06.201,0.266,-1.258,-0.629
12/17/2014 11:08:06.213,0.313,-1.379,-0.301
12/17/2014 11:08:06.226,0.215,-0.875,0.023
12/17/2014 11:08:06.239,0.156,-0.609,0.188
12/17/2014 11:08:06.252,0.145,-0.531,0.047
12/17/2014 11:08:06.263,0.18,-0.391,-0.168
12/17/2014 11:08:06.276,0.031,-0.043,-0.207
12/17/2014 11:08:06.289,-0.051,0.355,-0.117
12/17/2014 11:08:06.302,-0.207,0.695,-0.078
12/17/2014 11:08:06.313,-0.219,1.004,-0.484
12/17/2014 11:08:06.326,0.141,1.172,-0.574
12/17/2014 11:08:06.338,0.281,1.922,-0.164
12/17/2014 11:08:06.351,-0.207,2.699,-0.176
12/17/2014 11:08:06.364,-0.551,3,-0.059
12/17/2014 11:08:06.377,-0.594,3,0.211
12/17/2014 11:08:06.388,-0.336,2.68,0.059
12/17/2014 11:08:06.401,-0.398,2.25,-0.121
12/17/2014 11:08:06.414,-0.23,1.836,-0.098
12/17/2014 11:08:06.427,-0.023,1.891,0.047
12/17/2014 11:08:06.438,0.316,2.281,0.305
12/17/2014 11:08:06.451,0.563,2.414,0.527
12/17/2014 11:08:06.463,0.406,2.027,0.445
12/17/2014 11:08:06.476,0.215,1.563,0.309
12/17/2014 11:08:06.489,0.395,1.164,0.258
12/17/2014 11:08:06.502,0.418,0.547,-0.035
12/17/2014 11:08:06.513,0.316,-0.016,-0.273
12/17/2014 11:08:06.526,0.336,-0.352,-0.246
12/17/2014 11:08:06.539,0.258,-0.637,-0.238
12/17/2014 11:08:06.552,0.191,-0.879,-0.191
12/17/2014 11:08:06.563,0.293,-1.023,-0.121
12/17/2014 11:08:06.576,0.367,-0.992,-0.074
12/17/2014 11:08:06.588,0.324,-0.832,-0.086
12/17/2014 11:08:06.601,0.188,-0.66,-0.176
12/17/2014 11:08:06.614,0.113,-0.484,-0.254
12/17/2014 11:08:06.627,0.141,-0.219,-0.293
12/17/2014 11:08:06.638,0.301,0.082,-0.391
12/17/2014 11:08:06.651,0.805,0.352,-0.793
12/17/2014 11:08:06.664,0.832,0.543,-1.211
12/17/2014 11:08:06.677,0.605,1.402,-1.094
12/17/2014 11:08:06.688,1.145,3,0.047
12/17/2014 11:08:06.701,1.879,3,1.227
12/17/2014 11:08:06.713,1.188,3,0.664
12/17/2014 11:08:06.726,0.504,3,0.367
12/17/2014 11:08:06.739,-0.035,2.402,0.086
12/17/2014 11:08:06.752,-0.5,2.535,0.133
12/17/2014 11:08:06.763,-0.773,2.465,0.184
12/17/2014 11:08:06.776,-0.883,2.363,0.254
12/17/2014 11:08:06.789,-0.668,1.941,0.297
12/17/2014 11:08:06.802,-0.285,1.535,0.219
12/17/2014 11:08:06.813,0.047,1.137,0.207
12/17/2014 11:08:06.826,0.004,0.605,0.223
12/17/2014 11:08:06.838,0.082,0.098,0.172
12/17/2014 11:08:06.851,0.07,-0.457,-0.184
12/17/2014 11:08:06.864,0.066,-1.148,-0.637
12/17/2014 11:08:06.877,0.109,-1.52,-0.664
12/17/2014 11:08:06.888,-0.004,-1.387,-0.238
12/17/2014 11:08:06.901,0.074,-1.102,0.133
12/17/2014 11:08:06.914,0.141,-1.016,0.32
12/17/2014 11:08:06.927,0.148,-0.566,-0.027
12/17/2014 11:08:06.938,0.195,-0.125,-0.363
12/17/2014 11:08:06.951,0.121,0.145,-0.293
12/17/2014 11:08:06.963,0.141,0.441,0.078
12/17/2014 11:08:06.976,-0.148,0.977,-0.199
12/17/2014 11:08:06.989,-0.18,1.406,-0.566
12/17/2014 11:08:07.002,0.422,1.277,-0.34
12/17/2014 11:08:07.013,0.441,2.105,0.363
12/17/2014 11:08:07.026,-0.621,2.664,0.043
12/17/2014 11:08:07.039,-1.191,2.711,-0.539
12/17/2014 11:08:07.052,-1.016,3,-0.188
12/17/2014 11:08:07.063,-0.418,2.734,0.07
12/17/2014 11:08:07.076,-0.078,2.406,0.023
12/17/2014 11:08:07.088,0.176,1.988,0.059
12/17/2014 11:08:07.101,0.281,1.914,-0.047
12/17/2014 11:08:07.114,0.52,2.176,0.098
12/17/2014 11:08:07.127,0.656,2.172,0.305
12/17/2014 11:08:07.138,0.469,1.949,0.309
12/17/2014 11:08:07.151,0.266,1.641,0.145
12/17/2014 11:08:07.164,0.188,1.266,0.086
12/17/2014 11:08:07.177,0.148,0.887,-0.016
12/17/2014 11:08:07.188,0.18,0.367,-0.184
12/17/2014 11:08:07.201,0.211,-0.094,-0.289
12/17/2014 11:08:07.213,0.363,-0.477,-0.332
12/17/2014 11:08:07.226,0.527,-0.797,-0.293
12/17/2014 11:08:07.239,0.773,-1.039,-0.176
12/17/2014 11:08:07.252,0.871,-1.059,-0.023
12/17/2014 11:08:07.263,0.695,-1.059,0.047
12/17/2014 11:08:07.276,0.352,-0.977,0.02
12/17/2014 11:08:07.289,0.008,-0.852,-0.043
12/17/2014 11:08:07.302,-0.176,-0.645,-0.07
12/17/2014 11:08:07.313,-0.207,-0.313,-0.301
12/17/2014 11:08:07.326,0.035,-0.012,-0.727
12/17/2014 11:08:07.338,0.301,0.285,-1.191
12/17/2014 11:08:07.351,0.113,0.609,-1.129
12/17/2014 11:08:07.364,0.137,1.938,-0.379
12/17/2014 11:08:07.377,1.07,3,1.078
12/17/2014 11:08:07.388,1.629,3,1.484
12/17/2014 11:08:07.401,0.504,3,0.516
12/17/2014 11:08:07.414,0.059,2.273,0.133
12/17/2014 11:08:07.427,-0.602,2.262,-0.008
12/17/2014 11:08:07.438,-0.855,2.43,0.168
12/17/2014 11:08:07.451,-1.109,2.645,0.344
12/17/2014 11:08:07.463,-0.852,2.203,0.492
12/17/2014 11:08:07.476,-0.363,1.688,0.191
12/17/2014 11:08:07.489,-0.031,1.313,-0.031
12/17/2014 11:08:07.502,0.188,0.891,-0.051
12/17/2014 11:08:07.513,0.219,0.52,-0.176
12/17/2014 11:08:07.526,0.332,0.148,-0.301
12/17/2014 11:08:07.539,0.359,-0.555,-0.586
12/17/2014 11:08:07.552,0.645,-1.031,-0.746
12/17/2014 11:08:07.563,0.898,-1.383,-0.586
12/17/2014 11:08:07.576,0.781,-1.195,-0.148
12/17/2014 11:08:07.588,0.484,-0.805,0.063
12/17/2014 11:08:07.601,0.324,-0.797,0.082
12/17/2014 11:08:07.614,0.195,-0.73,-0.012
12/17/2014 11:08:07.627,-0.148,-0.328,-0.141
12/17/2014 11:08:07.638,-0.266,0.184,-0.23
12/17/2014 11:08:07.651,-0.41,0.73,-0.273
12/17/2014 11:08:07.664,-0.281,1.184,-0.234
12/17/2014 11:08:07.677,-0.215,1.969,-0.109
12/17/2014 11:08:07.688,-0.621,2.906,0.016
12/17/2014 11:08:07.701,-1.242,3,0.18
12/17/2014 11:08:07.713,-1,3,0.063
12/17/2014 11:08:07.726,-0.461,2.621,0.031
12/17/2014 11:08:07.739,-0.152,2.141,-0.125
12/17/2014 11:08:07.752,0.047,1.809,-0.176
12/17/2014 11:08:07.763,0.121,1.805,-0.141
12/17/2014 11:08:07.776,0.129,2.195,0.133
12/17/2014 11:08:07.789,0.242,2.41,0.496
12/17/2014 11:08:07.802,0.234,2.414,0.547
12/17/2014 11:08:07.813,0.008,1.973,0.316
12/17/2014 11:08:07.826,-0.078,1.594,0.117
12/17/2014 11:08:07.838,0.211,1.25,0.098
12/17/2014 11:08:07.851,0.41,0.672,-0.148
12/17/2014 11:08:07.864,0.293,0.027,-0.438
12/17/2014 11:08:07.877,0.371,-0.453,-0.496
12/17/2014 11:08:07.888,0.461,-0.758,-0.492
12/17/2014 11:08:07.901,0.609,-0.973,-0.32
12/17/2014 11:08:07.914,0.785,-1.035,-0.004
12/17/2014 11:08:07.927,0.832,-0.996,0.184
12/17/2014 11:08:07.938,0.719,-0.867,0.137
12/17/2014 11:08:07.951,0.426,-0.695,-0.094
12/17/2014 11:08:07.963,0.258,-0.492,-0.309
12/17/2014 11:08:07.976,0.238,-0.285,-0.434
12/17/2014 11:08:07.989,0.293,-0.043,-0.59
12/17/2014 11:08:08.002,0.438,0.223,-0.875
12/17/2014 11:08:08.013,0.43,0.438,-0.906
12/17/2014 11:08:08.026,0.238,1.012,-0.684
12/17/2014 11:08:08.039,0.473,2.457,-0.02
12/17/2014 11:08:08.052,1.273,3,1.27
12/17/2014 11:08:08.063,1.086,3,0.953
12/17/2014 11:08:08.076,0.266,2.965,0.52
12/17/2014 11:08:08.088,-0.277,2.461,0.211
12/17/2014 11:08:08.101,-0.793,2.625,0.121
12/17/2014 11:08:08.114,-1.191,2.707,0.289
12/17/2014 11:08:08.127,-1.176,2.422,0.473
12/17/2014 11:08:08.138,-0.785,1.781,0.445
12/17/2014 11:08:08.151,-0.387,1.484,0.195
12/17/2014 11:08:08.164,-0.031,1.148,0.223
12/17/2014 11:08:08.177,0.172,0.641,0.121
12/17/2014 11:08:08.188,0.047,0.078,-0.137
12/17/2014 11:08:08.201,-0.09,-0.531,-0.508
12/17/2014 11:08:08.213,0.039,-1.051,-0.809
12/17/2014 11:08:08.226,0.223,-1.422,-0.641
12/17/2014 11:08:08.239,0.27,-1.207,-0.344
12/17/2014 11:08:08.252,0.293,-0.945,-0.074
12/17/2014 11:08:08.263,0.293,-0.797,0.199
12/17/2014 11:08:08.276,0.418,-0.582,-0.051
12/17/2014 11:08:08.289,0.301,-0.176,-0.25
12/17/2014 11:08:08.302,0.164,0.16,-0.297
12/17/2014 11:08:08.313,-0.094,0.719,-0.473
12/17/2014 11:08:08.326,0.004,1.152,-0.363
12/17/2014 11:08:08.338,0.52,1.32,-0.023
12/17/2014 11:08:08.351,0.352,2.047,0.219
12/17/2014 11:08:08.364,-0.496,2.813,-0.055
12/17/2014 11:08:08.377,-0.766,2.836,-0.152
12/17/2014 11:08:08.388,-0.852,2.824,-0.082
12/17/2014 11:08:08.401,-0.426,2.484,-0.07
12/17/2014 11:08:08.414,-0.215,2.145,-0.129
12/17/2014 11:08:08.427,-0.145,1.813,-0.156
12/17/2014 11:08:08.438,-0.016,1.754,-0.035
12/17/2014 11:08:08.451,0.102,2.117,0.324
12/17/2014 11:08:08.463,0.191,2.246,0.492
12/17/2014 11:08:08.476,0.16,2.266,0.508
12/17/2014 11:08:08.489,0.07,1.781,0.352
12/17/2014 11:08:08.502,-0.133,1.438,0.25
12/17/2014 11:08:08.513,0.055,0.871,0.098
12/17/2014 11:08:08.526,0.137,0.242,-0.215
12/17/2014 11:08:08.539,0.176,-0.125,-0.344
12/17/2014 11:08:08.552,0.273,-0.453,-0.316
12/17/2014 11:08:08.563,0.246,-0.82,-0.305
12/17/2014 11:08:08.576,0.344,-1.023,-0.172
12/17/2014 11:08:08.588,0.469,-1.008,-0.016
12/17/2014 11:08:08.601,0.52,-0.938,-0.004
12/17/2014 11:08:08.614,0.48,-0.797,-0.086
12/17/2014 11:08:08.627,0.406,-0.703,-0.223
12/17/2014 11:08:08.638,0.453,-0.484,-0.395
12/17/2014 11:08:08.651,0.684,-0.16,-0.727
12/17/2014 11:08:08.664,0.898,0.121,-1.023
12/17/2014 11:08:08.677,0.723,0.422,-1.063
12/17/2014 11:08:08.688,0.773,1.594,-0.82
12/17/2014 11:08:08.701,1.301,3,0.527
12/17/2014 11:08:08.713,2.188,3,1.531
12/17/2014 11:08:08.726,1.059,3,0.434
12/17/2014 11:08:08.739,0.176,2.711,0.289
12/17/2014 11:08:08.752,-0.402,2.25,0.047
12/17/2014 11:08:08.763,-0.551,2.438,0.121
12/17/2014 11:08:08.776,-0.77,2.355,0.172
12/17/2014 11:08:08.789,-0.75,2.148,0.383
12/17/2014 11:08:08.802,-0.465,1.688,0.508
12/17/2014 11:08:08.813,-0.23,1.383,0.184
12/17/2014 11:08:08.826,0.043,0.988,0
12/17/2014 11:08:08.838,0.059,0.488,-0.074
12/17/2014 11:08:08.851,0.051,0.211,-0.156
12/17/2014 11:08:08.864,-0.039,-0.422,-0.449
12/17/2014 11:08:08.877,0.055,-1.219,-0.742
12/17/2014 11:08:08.888,0.199,-1.477,-0.578
12/17/2014 11:08:08.901,0.199,-1.168,-0.152
12/17/2014 11:08:08.914,0.109,-0.629,0.137
12/17/2014 11:08:08.927,0.105,-0.594,0.238
12/17/2014 11:08:08.938,0.043,-0.5,0
12/17/2014 11:08:08.951,0.063,-0.324,-0.164
12/17/2014 11:08:08.963,-0.086,-0.008,-0.059
12/17/2014 11:08:08.976,-0.262,0.531,-0.27
12/17/2014 11:08:08.989,-0.297,1.105,-0.602
12/17/2014 11:08:09.002,0.168,1.164,-0.555
12/17/2014 11:08:09.013,0.328,1.824,-0.07
12/17/2014 11:08:09.026,-0.402,3,-0.023
12/17/2014 11:08:09.039,-1.273,3,-0.016
12/17/2014 11:08:09.052,-1.047,3,0.023
12/17/2014 11:08:09.063,-0.41,2.473,-0.043
12/17/2014 11:08:09.076,-0.063,2.035,-0.191
12/17/2014 11:08:09.088,0.207,1.668,-0.133
12/17/2014 11:08:09.101,0.5,1.648,-0.113
12/17/2014 11:08:09.114,0.766,2.109,0.07
12/17/2014 11:08:09.127,0.676,2.191,0.25
12/17/2014 11:08:09.138,0.422,1.961,0.254
12/17/2014 11:08:09.151,0.289,1.602,0.176
12/17/2014 11:08:09.164,0.289,1.238,0.137
12/17/2014 11:08:09.177,0.367,0.914,-0.012
12/17/2014 11:08:09.188,0.32,0.328,-0.273
12/17/2014 11:08:09.201,0.402,-0.234,-0.406
12/17/2014 11:08:09.213,0.445,-0.512,-0.336
12/17/2014 11:08:09.226,0.5,-0.766,-0.266
12/17/2014 11:08:09.239,0.641,-0.973,-0.125
12/17/2014 11:08:09.252,0.707,-1.055,0.059
12/17/2014 11:08:09.263,0.605,-1.07,0.141
12/17/2014 11:08:09.276,0.398,-0.945,0.066
12/17/2014 11:08:09.289,0.125,-0.676,-0.059
12/17/2014 11:08:09.302,-0.055,-0.434,-0.156
12/17/2014 11:08:09.313,-0.16,-0.18,-0.461
12/17/2014 11:08:09.326,-0.055,0.164,-0.938
12/17/2014 11:08:09.338,0.117,0.32,-1.207
12/17/2014 11:08:09.351,-0.133,0.781,-0.969
12/17/2014 11:08:09.364,0.273,2.461,0.035
12/17/2014 11:08:09.377,1.445,3,1.309
12/17/2014 11:08:09.388,1.73,3,1.055
12/17/2014 11:08:09.401,0.504,3,0.168
12/17/2014 11:08:09.414,0.086,2.188,-0.086
12/17/2014 11:08:09.427,-0.383,2.051,-0.148
12/17/2014 11:08:09.438,-0.813,2.301,-0.051
12/17/2014 11:08:09.451,-1.215,2.699,0.184
12/17/2014 11:08:09.463,-1.031,2.262,0.316
12/17/2014 11:08:09.476,-0.574,1.711,0.203
12/17/2014 11:08:09.489,-0.125,1.297,0.066
12/17/2014 11:08:09.502,0.164,0.813,-0.008
12/17/2014 11:08:09.513,0.258,0.281,-0.203
12/17/2014 11:08:09.526,0.359,-0.234,-0.391
12/17/2014 11:08:09.539,0.43,-0.895,-0.555
12/17/2014 11:08:09.552,0.602,-1.324,-0.586
12/17/2014 11:08:09.563,0.703,-1.398,-0.383
12/17/2014 11:08:09.576,0.656,-1,-0.074
12/17/2014 11:08:09.588,0.395,-0.758,0.125
12/17/2014 11:08:09.601,0.297,-0.738,0.133
12/17/2014 11:08:09.614,0.203,-0.508,0.02
12/17/2014 11:08:09.627,-0.051,0.008,-0.094
12/17/2014 11:08:09.638,-0.219,0.5,-0.184
12/17/2014 11:08:09.651,-0.422,0.992,-0.281
12/17/2014 11:08:09.664,-0.309,1.297,-0.406
12/17/2014 11:08:09.677,-0.297,1.91,-0.383
12/17/2014 11:08:09.688,-0.527,2.629,-0.254
12/17/2014 11:08:09.701,-0.945,3,0.07
12/17/2014 11:08:09.713,-0.902,3,0.027
12/17/2014 11:08:09.726,-0.336,2.773,0.094
12/17/2014 11:08:09.739,-0.012,2.223,-0.086
12/17/2014 11:08:09.752,0.082,1.762,-0.176
12/17/2014 11:08:09.763,0.176,1.91,-0.043
12/17/2014 11:08:09.776,0.402,2.32,0.25
12/17/2014 11:08:09.789,0.418,2.367,0.395
12/17/2014 11:08:09.802,0.457,1.848,0.313
12/17/2014 11:08:09.813,0.359,1.594,0.141
12/17/2014 11:08:09.826,0.309,1.254,0.105
12/17/2014 11:08:09.838,0.281,0.82,-0.078
12/17/2014 11:08:09.851,0.105,0.234,-0.34
12/17/2014 11:08:09.864,0.203,-0.277,-0.355
12/17/2014 11:08:09.877,0.246,-0.598,-0.297
12/17/2014 11:08:09.888,0.348,-0.82,-0.203
12/17/2014 11:08:09.901,0.473,-0.926,-0.047
12/17/2014 11:08:09.914,0.551,-0.867,0.059
12/17/2014 11:08:09.927,0.59,-0.773,0.094
12/17/2014 11:08:09.938,0.461,-0.676,0
12/17/2014 11:08:09.951,0.258,-0.5,-0.18
12/17/2014 11:08:09.963,0.238,-0.426,-0.293
12/17/2014 11:08:09.976,0.23,-0.254,-0.34
12/17/2014 11:08:09.989,0.352,0.008,-0.621
12/17/2014 11:08:10.002,0.582,0.328,-1.066
12/17/2014 11:08:10.013,0.453,0.422,-1.098
12/17/2014 11:08:10.026,0.395,1.695,-0.605
12/17/2014 11:08:10.039,1.219,3,0.547
12/17/2014 11:08:10.052,2.008,3,1.449
12/17/2014 11:08:10.063,0.609,3,0.426
12/17/2014 11:08:10.076,0.078,2.688,0.207
12/17/2014 11:08:10.088,-0.406,2.355,-0.02
12/17/2014 11:08:10.101,-0.875,2.586,0.145
12/17/2014 11:08:10.114,-1.305,2.727,0.281
12/17/2014 11:08:10.127,-1.012,2.203,0.414
12/17/2014 11:08:10.138,-0.555,1.664,0.109
12/17/2014 11:08:10.151,-0.063,1.242,-0.012
12/17/2014 11:08:10.164,0.305,0.762,0.109
12/17/2014 11:08:10.177,0.52,0.293,-0.012
12/17/2014 11:08:10.188,0.398,-0.344,-0.395
12/17/2014 11:08:10.201,0.363,-0.898,-0.652
12/17/2014 11:08:10.213,0.449,-1.273,-0.598
12/17/2014 11:08:10.226,0.547,-1.383,-0.332
12/17/2014 11:08:10.239,0.523,-1.137,-0.102
12/17/2014 11:08:10.252,0.426,-0.953,-0.055
12/17/2014 11:08:10.263,-0.059,-0.555,-0.125
12/17/2014 11:08:10.276,-0.031,-0.258,-0.074
12/17/2014 11:08:10.289,-0.07,-0.117,-0.105
12/17/2014 11:08:10.302,-0.121,0.027,-0.145
12/17/2014 11:08:10.313,-0.316,0.438,-0.098
12/17/2014 11:08:10.326,-0.488,1.254,-0.582
12/17/2014 11:08:10.338,0.066,1.586,-0.867
12/17/2014 11:08:10.351,0.164,2.25,-0.293
12/17/2014 11:08:10.364,-0.273,3,0.516
12/17/2014 11:08:10.377,-1.016,3,0.316
12/17/2014 11:08:10.388,-0.773,3,0.121
12/17/2014 11:08:10.401,-0.203,2.492,0.055
12/17/2014 11:08:10.414,0.027,2.023,-0.063
12/17/2014 11:08:10.427,0.199,1.809,-0.043
12/17/2014 11:08:10.438,0.363,2.215,0.137
12/17/2014 11:08:10.451,0.512,2.273,0.277
12/17/2014 11:08:10.463,0.477,2.18,0.352
12/17/2014 11:08:10.476,0.547,1.734,0.293
12/17/2014 11:08:10.489,0.563,1.484,0.293
12/17/2014 11:08:10.502,0.496,1,0.207
12/17/2014 11:08:10.513,0.316,0.559,-0.02
12/17/2014 11:08:10.526,0.129,0.055,-0.207
12/17/2014 11:08:10.539,0.148,-0.516,-0.262
12/17/2014 11:08:10.552,0.203,-0.836,-0.285
12/17/2014 11:08:10.563,0.305,-1.039,-0.242
12/17/2014 11:08:10.576,0.402,-0.961,-0.09
12/17/2014 11:08:10.588,0.422,-0.84,0.023
12/17/2014 11:08:10.601,0.336,-0.746,0.016
12/17/2014 11:08:10.614,0.141,-0.609,-0.102
12/17/2014 11:08:10.627,0.031,-0.508,-0.262
12/17/2014 11:08:10.638,-0.012,-0.32,-0.336
12/17/2014 11:08:10.651,-0.012,-0.023,-0.328
12/17/2014 11:08:10.664,0.156,0.281,-0.449
12/17/2014 11:08:10.677,0.676,0.605,-0.828
12/17/2014 11:08:10.688,1.027,0.875,-1.16
12/17/2014 11:08:10.701,0.98,1.828,-0.859
12/17/2014 11:08:10.713,1.504,3,0.32
12/17/2014 11:08:10.726,2.254,3,1.152
12/17/2014 11:08:10.739,0.934,3,0.367
12/17/2014 11:08:10.752,0.285,2.84,0.371
12/17/2014 11:08:10.763,-0.324,2.625,0.215
12/17/2014 11:08:10.776,-0.66,2.613,0.297
12/17/2014 11:08:10.789,-1.016,2.582,0.324
12/17/2014 11:08:10.802,-0.93,2.07,0.391
12/17/2014 11:08:10.813,-0.672,1.504,0.207
12/17/2014 11:08:10.826,-0.121,1.016,0.023
12/17/2014 11:08:10.838,0.289,0.539,0.09
12/17/2014 11:08:10.851,0.109,-0.066,-0.047
12/17/2014 11:08:10.864,-0.035,-0.844,-0.406
12/17/2014 11:08:10.877,0.035,-1.344,-0.613
12/17/2014 11:08:10.888,0.348,-1.566,-0.488
12/17/2014 11:08:10.901,0.512,-1.41,-0.219
12/17/2014 11:08:10.914,0.406,-1.098,0.07
12/17/2014 11:08:10.927,0.172,-0.715,0.117
12/17/2014 11:08:10.938,0.156,-0.488,0.02
12/17/2014 11:08:10.951,0.074,-0.199,-0.129
12/17/2014 11:08:10.963,0.02,0.227,-0.246
12/17/2014 11:08:10.976,-0.035,0.547,-0.039
12/17/2014 11:08:10.989,-0.324,0.98,0.41
12/17/2014 11:08:11.002,-0.633,1.402,-0.363
12/17/2014 11:08:11.013,-0.277,1.699,-1.137
12/17/2014 11:08:11.026,0.012,2.043,-0.664
12/17/2014 11:08:11.039,-0.016,2.457,-0.043
12/17/2014 11:08:11.052,-0.051,2.875,-0.32
12/17/2014 11:08:11.063,-0.059,3,-0.02
12/17/2014 11:08:11.076,0.18,2.586,0.125
12/17/2014 11:08:11.088,0.039,2.145,-0.141
12/17/2014 11:08:11.101,-0.355,2.277,-0.102
12/17/2014 11:08:11.114,-0.34,2.344,0.254
12/17/2014 11:08:11.127,-0.098,2.281,0.273
12/17/2014 11:08:11.138,0.355,2.418,0.328
12/17/2014 11:08:11.151,0.625,1.902,0.348
12/17/2014 11:08:11.164,0.711,1.457,0.34
12/17/2014 11:08:11.177,0.539,0.82,0.102
12/17/2014 11:08:11.188,0.188,0.184,-0.254
12/17/2014 11:08:11.201,0.105,-0.316,-0.359
12/17/2014 11:08:11.213,0.129,-0.73,-0.359
12/17/2014 11:08:11.226,0.195,-0.961,-0.262
12/17/2014 11:08:11.239,0.293,-1.07,-0.055
12/17/2014 11:08:11.252,0.371,-1.07,0.105
12/17/2014 11:08:11.263,0.348,-0.941,0.086
12/17/2014 11:08:11.276,0.238,-0.797,-0.008
12/17/2014 11:08:11.289,0.09,-0.648,-0.125
12/17/2014 11:08:11.302,0.094,-0.516,-0.234
12/17/2014 11:08:11.313,0.086,-0.328,-0.285
12/17/2014 11:08:11.326,0.23,0,-0.488
12/17/2014 11:08:11.338,0.738,0.445,-0.895
12/17/2014 11:08:11.351,1.074,0.723,-1.258
12/17/2014 11:08:11.364,1.063,1.867,-0.891
12/17/2014 11:08:11.377,1.266,3,0.277
12/17/2014 11:08:11.388,2.168,3,1.66
12/17/2014 11:08:11.401,0.598,3,0.539
12/17/2014 11:08:11.414,0.129,2.695,0.141
12/17/2014 11:08:11.427,-0.418,2.418,-0.074
12/17/2014 11:08:11.438,-0.73,2.574,0.191
12/17/2014 11:08:11.451,-1.078,2.566,0.332
12/17/2014 11:08:11.463,-0.906,2.082,0.344
12/17/2014 11:08:11.476,-0.488,1.566,0.215
12/17/2014 11:08:11.489,0.016,1.133,-0.055
12/17/2014 11:08:11.502,0.344,0.508,-0.211
12/17/2014 11:08:11.513,0.129,-0.203,-0.406
12/17/2014 11:08:11.526,0.141,-0.934,-0.602
12/17/2014 11:08:11.539,0.438,-1.387,-0.574
12/17/2014 11:08:11.552,0.777,-1.438,-0.324
12/17/2014 11:08:11.563,0.773,-1.23,-0.004
12/17/2014 11:08:11.576,0.336,-0.887,0.273
12/17/2014 11:08:11.588,0.043,-0.363,0.242
12/17/2014 11:08:11.601,-0.289,-0.043,0.023
12/17/2014 11:08:11.614,-0.277,-0.203,-0.02
12/17/2014 11:08:11.627,-0.227,-0.141,-0.109
12/17/2014 11:08:11.638,-0.277,0.211,-0.031
12/17/2014 11:08:11.651,-0.363,0.719,0.113
12/17/2014 11:08:11.664,-0.395,1.379,-0.496
12/17/2014 11:08:11.677,0.168,1.488,-0.918
12/17/2014 11:08:11.688,0.273,1.934,-0.398
12/17/2014 11:08:11.701,-0.074,2.75,-0.051
12/17/2014 11:08:11.713,-0.645,3,0.129
12/17/2014 11:08:11.726,-0.723,3,0.043
12/17/2014 11:08:11.739,-0.313,2.648,-0.078
12/17/2014 11:08:11.752,-0.063,2.086,-0.09
12/17/2014 11:08:11.763,0.023,1.891,-0.02
12/17/2014 11:08:11.776,0.035,2.105,0.051
12/17/2014 11:08:11.789,0.121,2.387,0.203
12/17/2014 11:08:11.802,0.445,2.34,0.379
12/17/2014 11:08:11.813,0.68,1.961,0.355
12/17/2014 11:08:11.826,0.785,1.547,0.27
12/17/2014 11:08:11.838,0.68,0.973,-0.004
12/17/2014 11:08:11.851,0.559,0.32,-0.363
12/17/2014 11:08:11.864,0.695,-0.43,-0.48
12/17/2014 11:08:11.877,0.719,-0.93,-0.504
12/17/2014 11:08:11.888,0.695,-1.109,-0.262
12/17/2014 11:08:11.901,0.645,-1.137,0.078
12/17/2014 11:08:11.914,0.566,-1.113,0.176
12/17/2014 11:08:11.927,0.48,-1.012,0.145
12/17/2014 11:08:11.938,0.215,-0.781,0.023
12/17/2014 11:08:11.951,-0.035,-0.563,-0.211
12/17/2014 11:08:11.963,-0.051,-0.41,-0.336
12/17/2014 11:08:11.976,-0.008,-0.223,-0.336
12/17/2014 11:08:11.989,0.156,0.129,-0.563
12/17/2014 11:08:12.002,0.551,0.625,-0.926
12/17/2014 11:08:12.013,0.762,1.09,-1.008
12/17/2014 11:08:12.026,0.711,3,-0.48
12/17/2014 11:08:12.039,1.5,3,0.957
12/17/2014 11:08:12.052,1.496,3,1.09
12/17/2014 11:08:12.063,0.242,3,0.34
12/17/2014 11:08:12.076,-0.246,2.484,0.012
12/17/2014 11:08:12.088,-0.68,2.391,-0.047
12/17/2014 11:08:12.101,-1.277,2.805,0.141
12/17/2014 11:08:12.114,-1.313,2.602,0.328
12/17/2014 11:08:12.127,-0.902,1.855,0.109
12/17/2014 11:08:12.138,-0.227,1.242,-0.02
12/17/2014 11:08:12.151,0.441,0.594,-0.035
12/17/2014 11:08:12.164,0.602,0.227,-0.211
12/17/2014 11:08:12.177,0.59,-0.555,-0.555
12/17/2014 11:08:12.188,0.609,-1.156,-0.734
12/17/2014 11:08:12.201,0.648,-1.445,-0.543
12/17/2014 11:08:12.213,0.707,-1.41,-0.137
12/17/2014 11:08:12.226,0.68,-1.152,0.148
12/17/2014 11:08:12.239,0.309,-0.918,0.109
12/17/2014 11:08:12.252,0.016,-0.477,-0.047
12/17/2014 11:08:12.263,-0.277,-0.07,-0.129
12/17/2014 11:08:12.276,-0.113,-0.059,-0.086
12/17/2014 11:08:12.289,-0.047,0.16,-0.012
12/17/2014 11:08:12.302,-0.102,0.594,0.23
12/17/2014 11:08:12.313,-0.379,1.145,0.023
12/17/2014 11:08:12.326,-0.355,1.742,-0.805
12/17/2014 11:08:12.338,-0.145,1.934,-0.969
12/17/2014 11:08:12.351,-0.082,2.324,-0.348
12/17/2014 11:08:12.364,-0.418,2.949,0.004
12/17/2014 11:08:12.377,-0.535,3,-0.043
12/17/2014 11:08:12.388,-0.313,2.875,0.02
12/17/2014 11:08:12.401,0.012,2.336,-0.035
12/17/2014 11:08:12.414,-0.016,2.117,0
12/17/2014 11:08:12.427,-0.074,2.379,0.176
12/17/2014 11:08:12.438,0.039,2.508,0.254
12/17/2014 11:08:12.451,0.223,2.496,0.375
12/17/2014 11:08:12.463,0.578,2.188,0.34
12/17/2014 11:08:12.476,0.828,1.84,0.309
12/17/2014 11:08:12.489,0.773,1.219,0.191
12/17/2014 11:08:12.502,0.355,0.5,-0.188
12/17/2014 11:08:12.513,0.113,-0.242,-0.426
12/17/2014 11:08:12.526,0.055,-0.805,-0.441
12/17/2014 11:08:12.539,0.188,-1.121,-0.375
12/17/2014 11:08:12.552,0.375,-1.219,-0.117
12/17/2014 11:08:12.563,0.535,-1.09,0.105
12/17/2014 11:08:12.576,0.609,-0.902,0.113
12/17/2014 11:08:12.588,0.512,-0.773,0.008
12/17/2014 11:08:12.601,0.281,-0.625,-0.164
12/17/2014 11:08:12.614,0.227,-0.5,-0.32
12/17/2014 11:08:12.627,0.246,-0.316,-0.32
12/17/2014 11:08:12.638,0.246,-0.07,-0.301
12/17/2014 11:08:12.651,0.516,0.242,-0.238
12/17/2014 11:08:12.664,0.977,0.77,-0.613
12/17/2014 11:08:12.677,1.199,1.266,-0.918
12/17/2014 11:08:12.688,0.957,2.605,-0.727
12/17/2014 11:08:12.701,0.895,3,0.25
12/17/2014 11:08:12.713,0.773,3,1.059
12/17/2014 11:08:12.726,0.063,3,0.789
12/17/2014 11:08:12.739,-0.129,2.547,0.398
12/17/2014 11:08:12.752,-0.828,2.672,0.148
12/17/2014 11:08:12.763,-1.438,2.633,0.324
12/17/2014 11:08:12.776,-1.375,2.234,0.41
12/17/2014 11:08:12.789,-1.059,1.664,0.152
12/17/2014 11:08:12.802,-0.313,1.203,-0.008
12/17/2014 11:08:12.813,0.199,0.613,-0.195
12/17/2014 11:08:12.826,0.313,-0.277,-0.52
12/17/2014 11:08:12.838,0.672,-0.957,-0.699
12/17/2014 11:08:12.851,0.867,-1.387,-0.656
12/17/2014 11:08:12.864,0.93,-1.398,-0.32
12/17/2014 11:08:12.877,0.934,-1.109,0.023
12/17/2014 11:08:12.888,0.535,-0.84,0.176
12/17/2014 11:08:12.901,-0.023,-0.613,0.016
12/17/2014 11:08:12.914,-0.16,-0.121,-0.129
12/17/2014 11:08:12.927,-0.18,-0.078,-0.125
12/17/2014 11:08:12.938,-0.129,-0.152,-0.047
12/17/2014 11:08:12.951,-0.23,0.223,0.066
12/17/2014 11:08:12.963,-0.227,0.797,-0.043
12/17/2014 11:08:12.976,0.066,1.426,-0.551
12/17/2014 11:08:12.989,0.453,1.699,-0.719
12/17/2014 11:08:13.002,0.32,2.238,-0.398
12/17/2014 11:08:13.013,-0.129,2.508,-0.48
12/17/2014 11:08:13.026,-0.43,3,-0.18
12/17/2014 11:08:13.039,-0.516,3,0.07
12/17/2014 11:08:13.052,-0.262,2.516,0.031
12/17/2014 11:08:13.063,0.012,2.012,-0.086
12/17/2014 11:08:13.076,0.039,2.219,-0.086
12/17/2014 11:08:13.088,-0.047,2.324,0.16
12/17/2014 11:08:13.101,0.16,2.313,0.504
12/17/2014 11:08:13.114,0.453,2.387,0.551
12/17/2014 11:08:13.127,0.738,1.992,0.266
12/17/2014 11:08:13.138,0.73,1.648,0.063
12/17/2014 11:08:13.151,0.535,1.121,-0.102
12/17/2014 11:08:13.164,0.215,0.18,-0.293
12/17/2014 11:08:13.177,-0.078,-0.914,-0.512
12/17/2014 11:08:13.188,-0.07,-1.438,-0.516
12/17/2014 11:08:13.201,0.02,-1.301,-0.305
12/17/2014 11:08:13.213,0.016,-0.941,0.027
12/17/2014 11:08:13.226,-0.016,-0.672,0.207
12/17/2014 11:08:13.239,0.082,-0.461,0.172
12/17/2014 11:08:13.252,0.102,-0.184,-0.043
12/17/2014 11:08:13.263,0.23,0.129,-0.246
12/17/2014 11:08:13.276,0.512,0.105,-0.371
12/17/2014 11:08:13.289,0.809,-0.008,-0.293
12/17/2014 11:08:13.302,1.047,0.082,-0.391
12/17/2014 11:08:13.313,1.457,0.313,-0.91
12/17/2014 11:08:13.326,1.57,0.227,-1.156
12/17/2014 11:08:13.338,1.215,1.352,-1.074
12/17/2014 11:08:13.351,0.871,3,-0.152
12/17/2014 11:08:13.364,1.281,3,1.398
12/17/2014 11:08:13.377,0.203,3,0.996
12/17/2014 11:08:13.388,-0.375,3,0.652
12/17/2014 11:08:13.401,-0.609,2.707,0.242
12/17/2014 11:08:13.414,-1.121,2.563,0.242
12/17/2014 11:08:13.427,-1.293,2.406,0.281
12/17/2014 11:08:13.438,-0.949,1.715,0.215
12/17/2014 11:08:13.451,-0.453,1.297,0.078
12/17/2014 11:08:13.463,0.277,1.02,0.133
12/17/2014 11:08:13.476,0.445,-0.137,-0.105
12/17/2014 11:08:13.489,0.523,-0.785,-0.539
12/17/2014 11:08:13.502,0.539,-1.414,-0.77
12/17/2014 11:08:13.513,0.574,-1.598,-0.5
12/17/2014 11:08:13.526,0.734,-1.348,-0.004
12/17/2014 11:08:13.539,0.59,-0.949,0.285
12/17/2014 11:08:13.552,0.313,-0.586,0.152
12/17/2014 11:08:13.563,-0.016,-0.359,-0.145
12/17/2014 11:08:13.576,0.051,-0.152,-0.223
12/17/2014 11:08:13.588,0.184,0.047,-0.273
12/17/2014 11:08:13.601,0.117,0.125,-0.199
12/17/2014 11:08:13.614,-0.094,0.391,0.031
12/17/2014 11:08:13.627,-0.262,0.828,0.457
12/17/2014 11:08:13.638,-0.547,1.328,-0.313
12/17/2014 11:08:13.651,-0.215,1.531,-1.273
12/17/2014 11:08:13.664,-0.094,1.41,-1.129
12/17/2014 11:08:13.677,0,2.301,-0.285
12/17/2014 11:08:13.688,-0.594,3,0.117
12/17/2014 11:08:13.701,-0.605,3,0.066
12/17/2014 11:08:13.713,-0.164,2.617,0.125
12/17/2014 11:08:13.726,-0.074,1.93,-0.086
12/17/2014 11:08:13.739,-0.227,2.133,0.008
12/17/2014 11:08:13.752,0.039,2.336,0.16
12/17/2014 11:08:13.763,0.352,2.598,0.215
12/17/2014 11:08:13.776,0.477,2.543,0.414
12/17/2014 11:08:13.789,0.906,2.109,0.586
12/17/2014 11:08:13.802,0.914,1.383,0.395
12/17/2014 11:08:13.813,0.43,0.527,-0.031
12/17/2014 11:08:13.826,0.125,-0.332,-0.438
12/17/2014 11:08:13.838,0.191,-0.988,-0.531
12/17/2014 11:08:13.851,0.332,-1.316,-0.383
12/17/2014 11:08:13.864,0.461,-1.289,-0.047
12/17/2014 11:08:13.877,0.602,-1.098,0.16
12/17/2014 11:08:13.888,0.531,-0.887,0.16
12/17/2014 11:08:13.901,0.332,-0.594,0.09
12/17/2014 11:08:13.914,0.059,-0.238,-0.109
12/17/2014 11:08:13.927,0.016,-0.098,-0.293
12/17/2014 11:08:13.938,0.141,-0.098,-0.316
12/17/2014 11:08:13.951,0.254,0.043,-0.406
12/17/2014 11:08:13.963,0.746,0.438,-0.813
12/17/2014 11:08:13.976,1.012,0.676,-1.184
12/17/2014 11:08:13.989,0.957,1.637,-0.883
12/17/2014 11:08:14.002,1.141,3,-0.047
12/17/2014 11:08:14.013,2,3,1.211
12/17/2014 11:08:14.026,0.906,3,0.734
12/17/2014 11:08:14.039,0.129,2.871,0.383
12/17/2014 11:08:14.052,-0.484,2.418,0.133
12/17/2014 11:08:14.063,-1.031,2.414,0.141
12/17/2014 11:08:14.076,-1.414,2.555,0.344
12/17/2014 11:08:14.088,-1.305,2.184,0.371
12/17/2014 11:08:14.101,-0.621,1.555,0.234
12/17/2014 11:08:14.114,0.332,1.105,0.27
12/17/2014 11:08:14.127,0.355,0.129,0.078
12/17/2014 11:08:14.138,0.504,-0.301,-0.223
12/17/2014 11:08:14.151,0.578,-0.953,-0.566
12/17/2014 11:08:14.164,0.523,-1.488,-0.656
12/17/2014 11:08:14.177,0.508,-1.523,-0.344
12/17/2014 11:08:14.188,0.547,-1.219,0.145
12/17/2014 11:08:14.201,0.203,-0.699,0.297
12/17/2014 11:08:14.213,-0.086,-0.34,0.094
12/17/2014 11:08:14.226,-0.188,-0.266,-0.09
12/17/2014 11:08:14.239,-0.242,0,-0.148
12/17/2014 11:08:14.252,-0.141,0.164,-0.133
12/17/2014 11:08:14.263,-0.273,0.141,-0.004
12/17/2014 11:08:14.276,-0.527,0.719,-0.395
12/17/2014 11:08:14.289,-0.016,1.59,-1.063
12/17/2014 11:08:14.302,0.672,1.824,-0.902
12/17/2014 11:08:14.313,0.906,3,0.23
12/17/2014 11:08:14.326,-0.273,3,0.082
12/17/2014 11:08:14.338,-0.742,3,-0.195
12/17/2014 11:08:14.351,-0.594,2.426,-0.43
12/17/2014 11:08:14.364,-0.152,1.988,-0.48
12/17/2014 11:08:14.377,0.133,1.555,-0.297
12/17/2014 11:08:14.388,0.34,1.715,-0.18
12/17/2014 11:08:14.401,0.656,2.258,-0.039
12/17/2014 11:08:14.414,0.766,2.363,0.164
12/17/2014 11:08:14.427,0.613,2.09,0.316
12/17/2014 11:08:14.438,0.469,1.859,0.273
12/17/2014 11:08:14.451,0.469,1.766,0.281
12/17/2014 11:08:14.463,0.43,1.102,0.012
12/17/2014 11:08:14.476,0.266,0.215,-0.422
12/17/2014 11:08:14.489,0.289,-0.594,-0.531
12/17/2014 11:08:14.502,0.254,-1.023,-0.484
12/17/2014 11:08:14.513,0.227,-1.227,-0.281
12/17/2014 11:08:14.526,0.191,-1.035,-0.031
12/17/2014 11:08:14.539,0.242,-0.883,0.105
12/17/2014 11:08:14.552,0.23,-0.879,0.125
12/17/2014 11:08:14.563,0.055,-0.715,0.063
12/17/2014 11:08:14.576,-0.137,-0.418,-0.215
12/17/2014 11:08:14.588,-0.035,-0.34,-0.371
12/17/2014 11:08:14.601,0.137,-0.227,-0.297
12/17/2014 11:08:14.614,0.277,0.059,-0.266
12/17/2014 11:08:14.627,0.73,0.492,-0.488
12/17/2014 11:08:14.638,1.129,0.918,-1.031
12/17/2014 11:08:14.651,1.336,1.25,-0.953
12/17/2014 11:08:14.664,1.246,3,-0.227
12/17/2014 11:08:14.677,1.887,3,1.16
12/17/2014 11:08:14.688,0.949,3,0.957
12/17/2014 11:08:14.701,0.074,3,0.719
12/17/2014 11:08:14.713,-0.539,2.859,0.473
12/17/2014 11:08:14.726,-1.332,2.977,0.457
12/17/2014 11:08:14.739,-1.535,2.688,0.613
12/17/2014 11:08:14.752,-1.227,1.824,0.566
12/17/2014 11:08:14.763,-0.602,1.387,0.199
12/17/2014 11:08:14.776,0.02,1.133,0.043
12/17/2014 11:08:14.789,0.148,0.129,-0.066
12/17/2014 11:08:14.802,0.309,-0.449,-0.434
12/17/2014 11:08:14.813,0.375,-1.199,-0.711
12/17/2014 11:08:14.826,0.418,-1.621,-0.582
12/17/2014 11:08:14.838,0.488,-1.563,-0.074
12/17/2014 11:08:14.851,0.512,-1.184,0.289
12/17/2014 11:08:14.864,0.352,-0.84,0.164
12/17/2014 11:08:14.877,0.035,-0.539,-0.102
12/17/2014 11:08:14.888,-0.031,-0.379,-0.191
12/17/2014 11:08:14.901,-0.109,0.008,-0.078
12/17/2014 11:08:14.914,-0.16,0.129,0
12/17/2014 11:08:14.927,-0.457,0.656,-0.391
12/17/2014 11:08:14.938,-0.125,1.684,-1.039
12/17/2014 11:08:14.951,0.387,2.219,-1.219
12/17/2014 11:08:14.963,0.844,3,0.145
12/17/2014 11:08:14.976,-0.211,3,0.379
12/17/2014 11:08:14.989,-0.617,3,-0.125
12/17/2014 11:08:15.002,-0.254,2.371,-0.492
12/17/2014 11:08:15.013,0.102,1.738,-0.563
12/17/2014 11:08:15.026,0.363,1.227,-0.371
12/17/2014 11:08:15.039,0.688,1.539,-0.246
12/17/2014 11:08:15.052,1,2.078,-0.051
12/17/2014 11:08:15.063,0.938,2.234,0.309
12/17/2014 11:08:15.076,0.801,1.875,0.512
12/17/2014 11:08:15.088,0.344,1.625,0.336
12/17/2014 11:08:15.101,0.109,1.398,0.293
12/17/2014 11:08:15.114,-0.02,0.863,0.012
12/17/2014 11:08:15.127,-0.254,-0.043,-0.363
12/17/2014 11:08:15.138,-0.309,-0.793,-0.465
12/17/2014 11:08:15.151,-0.285,-1.215,-0.402
12/17/2014 11:08:15.164,-0.188,-1.086,-0.215
12/17/2014 11:08:15.177,-0.141,-0.723,0.156
12/17/2014 11:08:15.188,-0.082,-0.438,0.297
12/17/2014 11:08:15.201,-0.066,-0.215,0.188
12/17/2014 11:08:15.213,-0.066,0.039,-0.059
12/17/2014 11:08:15.226,-0.004,0.133,-0.301
12/17/2014 11:08:15.239,0.121,-0.074,-0.395
12/17/2014 11:08:15.252,0.16,-0.098,-0.371
12/17/2014 11:08:15.263,0.551,0.211,-0.605
12/17/2014 11:08:15.276,1.297,0.297,-1.328
12/17/2014 11:08:15.289,1.309,0.258,-1.707
12/17/2014 11:08:15.302,0.41,1.953,-1.465
12/17/2014 11:08:15.313,1.273,3,0.973
12/17/2014 11:08:15.326,2.379,3,1.539
12/17/2014 11:08:15.338,0.855,3,0.148
12/17/2014 11:08:15.351,0.148,3,0.348
12/17/2014 11:08:15.364,-0.281,2.5,0.422
12/17/2014 11:08:15.377,-0.762,2.137,0.238
12/17/2014 11:08:15.388,-1.504,2.266,0.105
12/17/2014 11:08:15.401,-1.574,2.043,0.281
12/17/2014 11:08:15.414,-0.574,1.457,0.297
12/17/2014 11:08:15.427,0.535,1.172,0.117
12/17/2014 11:08:15.438,0.48,0.164,-0.02
12/17/2014 11:08:15.451,0.676,-0.93,-0.453
12/17/2014 11:08:15.463,0.84,-1.523,-0.746
12/17/2014 11:08:15.476,0.906,-1.824,-0.512
12/17/2014 11:08:15.489,0.961,-1.523,0.004
12/17/2014 11:08:15.502,0.648,-0.973,0.383
12/17/2014 11:08:15.513,0.105,-0.508,0.297
12/17/2014 11:08:15.526,-0.145,-0.387,-0.035
12/17/2014 11:08:15.539,-0.328,-0.047,-0.129
12/17/2014 11:08:15.552,-0.293,0.273,-0.262
12/17/2014 11:08:15.563,-0.105,0.172,-0.203
12/17/2014 11:08:15.576,-0.066,0.289,0.098
12/17/2014 11:08:15.588,-0.461,0.879,0.313
12/17/2014 11:08:15.601,-0.852,2.129,-1.047
12/17/2014 11:08:15.614,-0.453,2.277,-1.871
12/17/2014 11:08:15.627,0.496,2.824,-0.262
12/17/2014 11:08:15.638,0.664,3,1.047
12/17/2014 11:08:15.651,0.66,2.832,0.23
12/17/2014 11:08:15.664,0.395,1.902,-0.258
12/17/2014 11:08:15.677,0.242,1.316,-0.336
12/17/2014 11:08:15.688,-0.156,1.68,-0.305
12/17/2014 11:08:15.701,-0.164,2.336,0.109
12/17/2014 11:08:15.713,0.586,2.566,0.211
12/17/2014 11:08:15.726,0.531,3,0.352
12/17/2014 11:08:15.739,0.125,2.457,0.641
12/17/2014 11:08:15.752,0.055,1.738,0.504
12/17/2014 11:08:15.763,0.117,0.977,0.074
12/17/2014 11:08:15.776,-0.066,-0.238,-0.441
12/17/2014 11:08:15.789,0.043,-0.945,-0.625
12/17/2014 11:08:15.802,0.215,-1.223,-0.48
12/17/2014 11:08:15.813,0.297,-1.102,-0.238
12/17/2014 11:08:15.826,0.113,-0.867,0.055
12/17/2014 11:08:15.838,-0.043,-0.719,0.176
12/17/2014 11:08:15.851,-0.164,-0.41,0.063
12/17/2014 11:08:15.864,-0.195,-0.012,-0.109
12/17/2014 11:08:15.877,-0.164,0.16,-0.281
12/17/2014 11:08:15.888,0.047,0.066,-0.395
12/17/2014 11:08:15.901,0.246,0.012,-0.391
12/17/2014 11:08:15.914,0.273,0.184,-0.398
12/17/2014 11:08:15.927,0.699,0.5,-0.516
12/17/2014 11:08:15.938,1.156,0.707,-1.047
12/17/2014 11:08:15.951,1.113,1.012,-1.082
12/17/2014 11:08:15.963,0.805,2.676,-0.555
12/17/2014 11:08:15.976,1.348,3,0.699
12/17/2014 11:08:15.989,1.039,3,1.086
12/17/2014 11:08:16.002,0.289,3,0.793
12/17/2014 11:08:16.013,-0.008,2.766,0.504
12/17/2014 11:08:16.026,-0.715,2.465,0.301
12/17/2014 11:08:16.039,-1.258,2.469,0.277
12/17/2014 11:08:16.052,-1.051,2.066,0.172
12/17/2014 11:08:16.063,-0.551,1.477,-0.012
12/17/2014 11:08:16.076,0.5,1.074,0.145
12/17/2014 11:08:16.088,0.73,0.051,-0.32
12/17/2014 11:08:16.101,0.84,-0.672,-0.586
12/17/2014 11:08:16.114,1.176,-1.293,-0.469
12/17/2014 11:08:16.127,0.918,-1.383,-0.293
12/17/2014 11:08:16.138,0.703,-1.23,-0.078
12/17/2014 11:08:16.151,0.543,-0.98,0.082
12/17/2014 11:08:16.164,0.164,-0.684,0.211
12/17/2014 11:08:16.177,-0.203,-0.426,0.156
12/17/2014 11:08:16.188,-0.426,-0.176,-0.113
12/17/2014 11:08:16.201,-0.57,0.348,-0.219
12/17/2014 11:08:16.213,-0.453,0.277,-0.273
12/17/2014 11:08:16.226,-0.492,0.117,-0.18
12/17/2014 11:08:16.239,-0.719,1.02,-0.863
12/17/2014 11:08:16.252,-0.191,1.855,-1.277
12/17/2014 11:08:16.263,0.48,3,-0.406
12/17/2014 11:08:16.276,0.145,3,1.035
12/17/2014 11:08:16.289,0.051,3,0.594
12/17/2014 11:08:16.302,0.086,2.27,-0.07
12/17/2014 11:08:16.313,0.215,1.75,-0.383
12/17/2014 11:08:16.326,0.262,1.5,-0.285
12/17/2014 11:08:16.338,0.352,1.883,-0.125
12/17/2014 11:08:16.351,0.605,2.367,0.02
12/17/2014 11:08:16.364,0.563,2.582,0.379
12/17/2014 11:08:16.377,0.059,2.375,0.633
12/17/2014 11:08:16.388,-0.148,1.813,0.469
12/17/2014 11:08:16.401,-0.191,1.313,0.211
12/17/2014 11:08:16.414,-0.117,0.746,-0.102
12/17/2014 11:08:16.427,-0.105,-0.102,-0.379
12/17/2014 11:08:16.438,0.051,-0.895,-0.43
12/17/2014 11:08:16.451,0.16,-1.434,-0.387
12/17/2014 11:08:16.463,0.25,-1.25,-0.223
12/17/2014 11:08:16.476,0.227,-0.66,0.035
12/17/2014 11:08:16.489,0.066,-0.367,0.121
12/17/2014 11:08:16.502,-0.07,-0.262,-0.016
12/17/2014 11:08:16.513,-0.109,0.039,-0.227
12/17/2014 11:08:16.526,-0.039,0.16,-0.359
12/17/2014 11:08:16.539,0.051,0.059,-0.449
12/17/2014 11:08:16.552,0.285,0.016,-0.418
12/17/2014 11:08:16.563,0.41,0.09,-0.406
12/17/2014 11:08:16.576,0.734,0.375,-0.566
12/17/2014 11:08:16.588,1.262,0.551,-0.988
12/17/2014 11:08:16.601,1.492,0.492,-1.168
12/17/2014 11:08:16.614,1.367,1.852,-0.762
12/17/2014 11:08:16.627,1.461,3,0.668
12/17/2014 11:08:16.638,1.34,3,0.996
12/17/2014 11:08:16.651,0.23,3,0.199
12/17/2014 11:08:16.664,-0.609,3,0.617
12/17/2014 11:08:16.677,-0.875,2.762,0.668
12/17/2014 11:08:16.688,-1.039,2.043,0.316
12/17/2014 11:08:16.701,-1.168,2.004,0.16
12/17/2014 11:08:16.713,-0.715,1.738,-0.008
12/17/2014 11:08:16.726,0.035,1.352,-0.109
12/17/2014 11:08:16.739,0.719,0.859,-0.02
12/17/2014 11:08:16.752,0.984,-0.035,-0.223
12/17/2014 11:08:16.763,1.008,-0.645,-0.535
12/17/2014 11:08:16.776,0.938,-1.176,-0.512
12/17/2014 11:08:16.789,0.703,-1.281,-0.324
12/17/2014 11:08:16.802,0.598,-1.113,-0.063
12/17/2014 11:08:16.813,0.492,-0.793,0.18
12/17/2014 11:08:16.826,0.059,-0.559,0.332
12/17/2014 11:08:16.838,-0.375,-0.5,0.172
12/17/2014 11:08:16.851,-0.508,-0.18,-0.07
12/17/2014 11:08:16.864,-0.582,0.332,-0.246
12/17/2014 11:08:16.877,-0.395,-0.059,-0.063
12/17/2014 11:08:16.888,-0.664,0.266,-0.176
12/17/2014 11:08:16.901,-0.684,1.402,-1.172
12/17/2014 11:08:16.914,-0.328,1.949,-1.719
12/17/2014 11:08:16.927,0.652,3,0.188
12/17/2014 11:08:16.938,0.191,3,0.949
12/17/2014 11:08:16.951,0.191,3,0.25
12/17/2014 11:08:16.963,0.203,1.902,-0.211
12/17/2014 11:08:16.976,0.188,1.43,-0.43
12/17/2014 11:08:16.989,0.023,1.582,-0.328
12/17/2014 11:08:17.002,0.074,2.156,-0.137
12/17/2014 11:08:17.013,0.359,2.488,0.16
12/17/2014 11:08:17.026,0.34,2.641,0.625
12/17/2014 11:08:17.039,-0.039,2.219,0.73
12/17/2014 11:08:17.052,-0.184,1.652,0.457
12/17/2014 11:08:17.063,-0.148,1.086,0.082
12/17/2014 11:08:17.076,0.059,0.371,-0.348
12/17/2014 11:08:17.088,0.254,-0.5,-0.523
12/17/2014 11:08:17.101,0.305,-1.141,-0.449
12/17/2014 11:08:17.114,0.207,-1.336,-0.387
12/17/2014 11:08:17.127,0.195,-0.977,-0.16
12/17/2014 11:08:17.138,0.086,-0.531,0.078
12/17/2014 11:08:17.151,-0.012,-0.363,0.047
12/17/2014 11:08:17.164,-0.051,-0.137,-0.188
12/17/2014 11:08:17.177,0.012,0.039,-0.344
12/17/2014 11:08:17.188,0.117,-0.043,-0.457
12/17/2014 11:08:17.201,0.281,-0.156,-0.473
12/17/2014 11:08:17.213,0.375,-0.094,-0.418
12/17/2014 11:08:17.226,0.488,0.184,-0.41
12/17/2014 11:08:17.239,0.863,0.57,-0.629
12/17/2014 11:08:17.252,1.164,0.684,-0.941
12/17/2014 11:08:17.263,1.32,1.078,-0.945
12/17/2014 11:08:17.276,0.93,3,-0.223
12/17/2014 11:08:17.289,0.965,3,1.039
12/17/2014 11:08:17.302,0.555,3,0.871
12/17/2014 11:08:17.313,-0.285,3,0.73
12/17/2014 11:08:17.326,-0.383,2.855,0.578
12/17/2014 11:08:17.338,-0.832,2.395,0.355
12/17/2014 11:08:17.351,-1.164,2.41,0.219
12/17/2014 11:08:17.364,-0.867,1.926,0.055
12/17/2014 11:08:17.377,-0.027,1.445,0.016
12/17/2014 11:08:17.388,0.777,0.828,0.059
12/17/2014 11:08:17.401,0.863,-0.191,-0.48
12/17/2014 11:08:17.414,0.988,-0.742,-0.637
12/17/2014 11:08:17.427,1.117,-1.344,-0.43
12/17/2014 11:08:17.438,0.77,-1.223,-0.168
12/17/2014 11:08:17.451,0.488,-1.121,0
12/17/2014 11:08:17.463,0.414,-0.953,0.121
12/17/2014 11:08:17.476,0.105,-0.723,0.195
12/17/2014 11:08:17.489,-0.324,-0.477,0.191
12/17/2014 11:08:17.502,-0.434,-0.348,-0.102
12/17/2014 11:08:17.513,-0.543,0.27,-0.258
12/17/2014 11:08:17.526,-0.41,0.32,-0.258
12/17/2014 11:08:17.539,-0.336,0.09,0.094
12/17/2014 11:08:17.552,-0.762,1.035,-0.391
12/17/2014 11:08:17.563,-0.59,2.375,-1.469
12/17/2014 11:08:17.576,0.07,2.496,-1.289
12/17/2014 11:08:17.588,0.746,3,0.941
12/17/2014 11:08:17.601,0.582,3,0.762
12/17/2014 11:08:17.614,0.168,2.586,-0.074
12/17/2014 11:08:17.627,-0.102,1.945,-0.352
12/17/2014 11:08:17.638,-0.141,1.438,-0.352
12/17/2014 11:08:17.651,-0.305,1.711,-0.238
12/17/2014 11:08:17.664,-0.121,2.199,0.074
12/17/2014 11:08:17.677,0.383,2.398,0.137
12/17/2014 11:08:17.688,0.453,2.395,0.488
12/17/2014 11:08:17.701,0.582,2.176,0.68
12/17/2014 11:08:17.713,0.605,1.586,0.355
12/17/2014 11:08:17.726,0.34,0.598,-0.188
12/17/2014 11:08:17.739,-0.016,-0.523,-0.438
12/17/2014 11:08:17.752,-0.219,-1.277,-0.371
12/17/2014 11:08:17.763,-0.203,-1.465,-0.375
12/17/2014 11:08:17.776,-0.066,-1.098,-0.336
12/17/2014 11:08:17.789,-0.066,-0.648,-0.148
12/17/2014 11:08:17.802,-0.152,-0.461,-0.055
12/17/2014 11:08:17.813,-0.137,-0.188,-0.168
12/17/2014 11:08:17.826,-0.008,0.145,-0.234
12/17/2014 11:08:17.838,0.098,0.141,-0.277
12/17/2014 11:08:17.851,0.219,0.07,-0.297
12/17/2014 11:08:17.864,0.445,0.082,-0.219
12/17/2014 11:08:17.877,0.453,0.105,-0.203
12/17/2014 11:08:17.888,0.652,0.32,-0.324
12/17/2014 11:08:17.901,1.199,0.688,-0.777
12/17/2014 11:08:17.914,1.66,0.742,-1.203
12/17/2014 11:08:17.927,1.711,1.734,-0.961
12/17/2014 11:08:17.938,1.055,3,0.418
12/17/2014 11:08:17.951,1.059,3,1.328
12/17/2014 11:08:17.963,0.145,3,0.688
12/17/2014 11:08:17.976,-0.266,3,1.082
12/17/2014 11:08:17.989,-0.566,2.609,0.715
12/17/2014 11:08:18.002,-1.18,2.375,0.336
12/17/2014 11:08:18.013,-1.215,1.965,0.055
12/17/2014 11:08:18.026,-0.73,1.234,-0.188
12/17/2014 11:08:18.039,-0.32,0.441,-0.414
12/17/2014 11:08:18.052,-0.016,-0.109,-0.668
12/17/2014 11:08:18.063,0.613,-0.602,-0.699
12/17/2014 11:08:18.076,0.871,-1.023,-0.48
12/17/2014 11:08:18.088,0.715,-1.082,-0.266
12/17/2014 11:08:18.101,0.836,-1.102,-0.055
12/17/2014 11:08:18.114,0.941,-1.125,0.168
12/17/2014 11:08:18.127,0.539,-0.941,0.258
12/17/2014 11:08:18.138,-0.039,-0.855,0.008
12/17/2014 11:08:18.151,-0.324,-0.309,-0.191
12/17/2014 11:08:18.164,-0.328,0.18,-0.27
12/17/2014 11:08:18.177,-0.199,0.035,-0.18
12/17/2014 11:08:18.188,-0.332,0.402,-0.039
12/17/2014 11:08:18.201,-0.684,1.453,-0.516
12/17/2014 11:08:18.213,-0.531,2.012,-1.094
12/17/2014 11:08:18.226,-0.359,2.973,-0.563
12/17/2014 11:08:18.239,-0.234,3,1.047
12/17/2014 11:08:18.252,0.105,3,0.434
12/17/2014 11:08:18.263,0.281,2.363,-0.188
12/17/2014 11:08:18.276,0.297,1.891,-0.133
12/17/2014 11:08:18.289,0.32,1.422,-0.09
12/17/2014 11:08:18.302,0.207,1.793,-0.063
12/17/2014 11:08:18.313,0.223,2.48,0.086
12/17/2014 11:08:18.326,0.074,2.707,0.43
12/17/2014 11:08:18.338,-0.004,2.352,0.52
12/17/2014 11:08:18.351,0.215,2.066,0.281
12/17/2014 11:08:18.364,0.43,1.109,-0.09
12/17/2014 11:08:18.377,0.402,-0.16,-0.352
12/17/2014 11:08:18.388,0.348,-1.047,-0.25
12/17/2014 11:08:18.401,0.16,-1.68,-0.316
12/17/2014 11:08:18.414,0.031,-1.836,-0.789
12/17/2014 11:08:18.427,-0.031,-0.973,-0.672
12/17/2014 11:08:18.438,-0.063,-0.453,-0.172
12/17/2014 11:08:18.451,-0.172,-0.184,0.164
12/17/2014 11:08:18.463,-0.254,0.027,0.188
12/17/2014 11:08:18.476,-0.098,0.246,-0.039
12/17/2014 11:08:18.489,0.246,0.418,-0.313
12/17/2014 11:08:18.502,0.715,0.34,-0.371
12/17/2014 11:08:18.513,1.184,0.273,-0.543
12/17/2014 11:08:18.526,1.566,0.496,-1.031
12/17/2014 11:08:18.539,1.758,0.441,-1.133
12/17/2014 11:08:18.552,1.477,1.625,-0.844
12/17/2014 11:08:18.563,1.348,3,0.414
12/17/2014 11:08:18.576,1.168,3,0.707
12/17/2014 11:08:18.588,0.293,3,0.348
12/17/2014 11:08:18.601,-0.445,3,0.559
12/17/2014 11:08:18.614,-0.465,2.438,0.531
12/17/2014 11:08:18.627,-0.902,2.156,0.328
12/17/2014 11:08:18.638,-1.242,2.285,0.305
12/17/2014 11:08:18.651,-0.73,1.961,0.328
12/17/2014 11:08:18.664,0.012,1.164,0.223
12/17/2014 11:08:18.677,0.07,0.227,-0.113
12/17/2014 11:08:18.688,0.48,-0.164,-0.648
12/17/2014 11:08:18.701,0.727,-0.711,-0.852
12/17/2014 11:08:18.713,0.836,-1.203,-0.605
12/17/2014 11:08:18.726,0.695,-1.273,-0.301
12/17/2014 11:08:18.739,0.625,-1.121,0.043
12/17/2014 11:08:18.752,0.621,-0.75,0.23
12/17/2014 11:08:18.763,0.32,-0.469,0.285
12/17/2014 11:08:18.776,-0.219,-0.262,0.121
12/17/2014 11:08:18.789,-0.387,-0.125,-0.172
12/17/2014 11:08:18.802,-0.465,0.34,-0.305
12/17/2014 11:08:18.813,-0.379,0.027,-0.176
12/17/2014 11:08:18.826,-0.707,0.215,-0.285
12/17/2014 11:08:18.838,-0.645,1.402,-1.098
12/17/2014 11:08:18.851,-0.199,1.785,-1.668
12/17/2014 11:08:18.864,1.082,3,-0.027
12/17/2014 11:08:18.877,0.273,3,1.109
12/17/2014 11:08:18.888,-0.066,3,0.34
12/17/2014 11:08:18.901,-0.066,2.027,-0.23
12/17/2014 11:08:18.914,-0.02,1.449,-0.438
12/17/2014 11:08:18.927,0.031,1.211,-0.293
12/17/2014 11:08:18.938,0.121,1.875,-0.242
12/17/2014 11:08:18.951,0.453,2.52,0.191
12/17/2014 11:08:18.963,0.262,2.633,0.582
12/17/2014 11:08:18.976,0.199,2.098,0.801
12/17/2014 11:08:18.989,0.188,1.828,0.355
12/17/2014 11:08:19.002,0.246,0.977,-0.113
12/17/2014 11:08:19.013,0.309,-0.16,-0.34
12/17/2014 11:08:19.026,0.234,-1.234,-0.348
12/17/2014 11:08:19.039,0.145,-1.68,-0.398
12/17/2014 11:08:19.052,0.141,-1.293,-0.457
12/17/2014 11:08:19.063,0.129,-0.629,-0.363
12/17/2014 11:08:19.076,0.043,-0.359,-0.141
12/17/2014 11:08:19.088,-0.082,-0.297,-0.031
12/17/2014 11:08:19.101,-0.125,-0.082,-0.059
12/17/2014 11:08:19.114,0,0.094,-0.098
12/17/2014 11:08:19.127,0.176,0.184,-0.234
12/17/2014 11:08:19.138,0.523,0.254,-0.313
12/17/2014 11:08:19.151,0.699,0.129,-0.219
12/17/2014 11:08:19.164,0.719,0.281,-0.285
12/17/2014 11:08:19.177,1.035,0.66,-0.766
12/17/2014 11:08:19.188,1.344,0.629,-1.383
12/17/2014 11:08:19.201,1.563,1.031,-1.148
12/17/2014 11:08:19.213,1.047,3,-0.039
12/17/2014 11:08:19.226,0.793,3,1.035
12/17/2014 11:08:19.239,0.258,3,0.406
12/17/2014 11:08:19.252,-0.523,3,0.574
12/17/2014 11:08:19.263,-0.738,2.969,0.867
12/17/2014 11:08:19.276,-1.152,2.5,0.445
12/17/2014 11:08:19.289,-1.035,2.285,0.145
12/17/2014 11:08:19.302,-0.359,1.855,-0.043
12/17/2014 11:08:19.313,0.313,1.082,-0.027
12/17/2014 11:08:19.326,0.578,0.043,-0.254
12/17/2014 11:08:19.338,0.66,-0.348,-0.637
12/17/2014 11:08:19.351,0.781,-0.965,-0.66
12/17/2014 11:08:19.364,0.664,-1.32,-0.359
12/17/2014 11:08:19.377,0.535,-1.191,-0.078
12/17/2014 11:08:19.388,0.656,-1.098,0.047
12/17/2014 11:08:19.401,0.469,-0.996,0.27
12/17/2014 11:08:19.414,0.102,-0.977,0.238
12/17/2014 11:08:19.427,-0.332,-0.609,0.004
12/17/2014 11:08:19.438,-0.59,0.297,-0.391
12/17/2014 11:08:19.451,-0.234,0.227,-0.434
12/17/2014 11:08:19.463,-0.105,0.105,-0.246
12/17/2014 11:08:19.476,-0.445,1.012,-0.602
12/17/2014 11:08:19.489,-0.23,2.301,-1.148
12/17/2014 11:08:19.502,-0.133,2.754,-0.895
12/17/2014 11:08:19.513,-0.191,3,1.125
12/17/2014 11:08:19.526,-0.379,3,1.023
12/17/2014 11:08:19.539,-0.211,2.199,-0.023
12/17/2014 11:08:19.552,0,1.867,-0.305
12/17/2014 11:08:19.563,0.203,1.633,-0.113
12/17/2014 11:08:19.576,0.348,1.57,0.051
12/17/2014 11:08:19.588,0.598,1.832,0.051
12/17/2014 11:08:19.601,0.848,2.324,0.125
12/17/2014 11:08:19.614,0.574,2.605,0.629
12/17/2014 11:08:19.627,-0.035,2.023,0.574
12/17/2014 11:08:19.638,-0.152,1.504,0.074
12/17/2014 11:08:19.651,0.18,0.891,-0.379
12/17/2014 11:08:19.664,0.363,-0.016,-0.563
12/17/2014 11:08:19.677,0.391,-0.863,-0.441
12/17/2014 11:08:19.688,0.18,-1.438,-0.332
12/17/2014 11:08:19.701,0.039,-1.5,-0.375
12/17/2014 11:08:19.713,-0.008,-0.992,-0.188
12/17/2014 11:08:19.726,-0.086,-0.625,0.051
12/17/2014 11:08:19.739,-0.195,-0.371,0.063
12/17/2014 11:08:19.752,-0.262,0.055,-0.129
12/17/2014 11:08:19.763,-0.035,0.211,-0.344
12/17/2014 11:08:19.776,0.363,0.176,-0.434
12/17/2014 11:08:19.789,0.676,0.164,-0.391
12/17/2014 11:08:19.802,0.836,0.297,-0.375
12/17/2014 11:08:19.813,1.141,0.691,-0.797
12/17/2014 11:08:19.826,1.387,0.773,-0.949
12/17/2014 11:08:19.838,1.156,1.504,-0.699
12/17/2014 11:08:19.851,0.805,3,0.16
12/17/2014 11:08:19.864,0.742,3,0.836
12/17/2014 11:08:19.877,0.352,3,0.406
12/17/2014 11:08:19.888,-0.598,3,0.398
12/17/2014 11:08:19.901,-0.785,3,0.855
12/17/2014 11:08:19.914,-0.895,2.336,0.633
12/17/2014 11:08:19.927,-0.891,1.992,0.031
12/17/2014 11:08:19.938,-0.395,1.73,-0.008
12/17/2014 11:08:19.951,0.254,1.324,-0.023
12/17/2014 11:08:19.963,0.68,0.789,-0.172
12/17/2014 11:08:19.976,0.641,-0.203,-0.563
12/17/2014 11:08:19.989,0.723,-0.938,-0.77
12/17/2014 11:08:20.002,0.813,-1.262,-0.57
12/17/2014 11:08:20.013,0.629,-1.082,-0.313
12/17/2014 11:08:20.026,0.645,-0.973,-0.086
12/17/2014 11:08:20.039,0.516,-1.031,0.16
12/17/2014 11:08:20.052,0.016,-0.965,0.344
12/17/2014 11:08:20.063,-0.348,-0.316,0.16
12/17/2014 11:08:20.076,-0.59,0.246,-0.184
12/17/2014 11:08:20.088,-0.297,0.129,-0.246
12/17/2014 11:08:20.101,-0.199,-0.004,-0.012
12/17/2014 11:08:20.114,-0.367,0.613,0.027
12/17/2014 11:08:20.127,-0.637,1.945,-0.973
12/17/2014 11:08:20.138,-0.055,2.309,-1.531
12/17/2014 11:08:20.151,0.84,3,-0.129
12/17/2014 11:08:20.164,0.383,3,0.77
12/17/2014 11:08:20.177,0.098,2.762,0.109
12/17/2014 11:08:20.188,0.063,2.297,-0.234
12/17/2014 11:08:20.201,0.086,2.035,-0.254
12/17/2014 11:08:20.213,-0.004,1.586,-0.164
12/17/2014 11:08:20.226,-0.254,1.793,0.008
12/17/2014 11:08:20.239,-0.09,2.246,0.129
12/17/2014 11:08:20.252,0.074,2.801,0.305
12/17/2014 11:08:20.263,-0.027,2.52,0.434
12/17/2014 11:08:20.276,0.113,1.996,0.406
12/17/2014 11:08:20.289,0.371,1.227,0
12/17/2014 11:08:20.302,0.383,0.031,-0.266
12/17/2014 11:08:20.313,0.184,-1.043,-0.375
12/17/2014 11:08:20.326,0.059,-1.766,-0.484
12/17/2014 11:08:20.338,0.031,-1.645,-0.551
12/17/2014 11:08:20.351,0.039,-1.074,-0.23
12/17/2014 11:08:20.364,-0.027,-0.773,0.07
12/17/2014 11:08:20.377,-0.125,-0.516,0.012
12/17/2014 11:08:20.388,-0.129,0.016,-0.18
12/17/2014 11:08:20.401,0.113,0.324,-0.25
12/17/2014 11:08:20.414,0.387,0.371,-0.328
12/17/2014 11:08:20.427,0.629,0.309,-0.32
12/17/2014 11:08:20.438,0.645,0.16,-0.324
12/17/2014 11:08:20.451,0.824,0.414,-0.504
12/17/2014 11:08:20.463,1.156,0.691,-1.027
12/17/2014 11:08:20.476,1.449,0.5,-1.34
12/17/2014 11:08:20.489,1.559,1.152,-0.945
12/17/2014 11:08:20.502,1.281,3,0.512
12/17/2014 11:08:20.513,0.852,3,1.094
12/17/2014 11:08:20.526,-0.105,3,0.215
12/17/2014 11:08:20.539,-0.781,3,0.66
12/17/2014 11:08:20.552,-1.168,3,0.883
12/17/2014 11:08:20.563,-1.613,3,0.512
12/17/2014 11:08:20.576,-1.031,2.539,0.379
12/17/2014 11:08:20.588,-0.219,1.762,0.121
12/17/2014 11:08:20.601,0.387,1.293,0.039
12/17/2014 11:08:20.614,0.703,0.129,-0.207
12/17/2014 11:08:20.627,0.695,-0.473,-0.691
12/17/2014 11:08:20.638,0.793,-1.078,-0.715
12/17/2014 11:08:20.651,0.75,-1.477,-0.492
12/17/2014 11:08:20.664,0.676,-1.199,-0.16
12/17/2014 11:08:20.677,0.773,-1.051,0.027
12/17/2014 11:08:20.688,0.613,-0.898,0.23
12/17/2014 11:08:20.701,0.176,-0.922,0.203
12/17/2014 11:08:20.713,-0.246,-0.352,0.027
12/17/2014 11:08:20.726,-0.48,0.277,-0.254
12/17/2014 11:08:20.739,-0.223,0.336,-0.406
12/17/2014 11:08:20.752,0.07,0.063,-0.289
12/17/2014 11:08:20.763,-0.086,0.348,-0.141
12/17/2014 11:08:20.776,-0.457,1.578,-0.766
12/17/2014 11:08:20.789,-0.164,2.48,-1.141
12/17/2014 11:08:20.802,0.035,3,-0.109
12/17/2014 11:08:20.813,0.16,3,1.258
12/17/2014 11:08:20.826,-0.16,2.953,0.75
12/17/2014 11:08:20.838,-0.199,2.133,-0.004
12/17/2014 11:08:20.851,-0.082,1.652,-0.293
12/17/2014 11:08:20.864,0.117,1.57,-0.129
12/17/2014 11:08:20.877,0.23,1.992,0.148
12/17/2014 11:08:20.888,0.465,2.613,0.512
12/17/2014 11:08:20.901,0.238,2.957,0.844
12/17/2014 11:08:20.914,-0.063,2.285,0.766
12/17/2014 11:08:20.927,-0.043,1.926,0.379
12/17/2014 11:08:20.938,0.027,1.16,-0.121
12/17/2014 11:08:20.951,0.148,0.137,-0.563
12/17/2014 11:08:20.963,0.27,-0.824,-0.598
12/17/2014 11:08:20.976,0.301,-1.508,-0.516
12/17/2014 11:08:20.989,0.363,-1.613,-0.473
12/17/2014 11:08:21.002,0.348,-1.156,-0.223
12/17/2014 11:08:21.013,0.168,-0.84,0.016
12/17/2014 11:08:21.026,-0.043,-0.602,-0.051
12/17/2014 11:08:21.039,-0.172,-0.121,-0.234
12/17/2014 11:08:21.052,-0.09,0.18,-0.375
12/17/2014 11:08:21.063,0.145,0.086,-0.43
12/17/2014 11:08:21.076,0.457,0.117,-0.352
12/17/2014 11:08:21.088,0.535,0.199,-0.324
12/17/2014 11:08:21.101,0.785,0.508,-0.469
12/17/2014 11:08:21.114,1.168,1.02,-0.844
12/17/2014 11:08:21.127,1.332,0.98,-0.895
12/17/2014 11:08:21.138,0.742,2.75,-0.387
12/17/2014 11:08:21.151,0.547,3,0.52
12/17/2014 11:08:21.164,0.637,3,1.09
12/17/2014 11:08:21.177,-0.066,3,0.723
12/17/2014 11:08:21.188,-0.207,3,0.797
12/17/2014 11:08:21.201,-0.605,2.586,0.621
12/17/2014 11:08:21.213,-0.891,2.484,0.289
12/17/2014 11:08:21.226,-0.531,2.066,0.211
12/17/2014 11:08:21.239,0.164,1.438,0.234
12/17/2014 11:08:21.252,0.68,0.641,-0.16
12/17/2014 11:08:21.263,0.621,-0.223,-0.629
12/17/2014 11:08:21.276,0.574,-0.813,-0.813
12/17/2014 11:08:21.289,0.727,-1.336,-0.527
12/17/2014 11:08:21.302,0.641,-1.293,-0.023
12/17/2014 11:08:21.313,0.414,-0.883,0.02
12/17/2014 11:08:21.326,0.438,-0.902,-0.055
12/17/2014 11:08:21.338,0.27,-0.926,0.094
12/17/2014 11:08:21.351,-0.008,-0.684,0.141
12/17/2014 11:08:21.364,-0.293,-0.355,-0.152
12/17/2014 11:08:21.377,-0.297,0.371,-0.355
12/17/2014 11:08:21.388,-0.082,0.551,-0.375
12/17/2014 11:08:21.401,0.078,0.18,-0.141
12/17/2014 11:08:21.414,-0.09,0.449,0.027
12/17/2014 11:08:21.427,-0.664,1.645,-0.727
12/17/2014 11:08:21.438,-0.336,2.418,-1.309
12/17/2014 11:08:21.451,-0.063,2.656,-0.34
12/17/2014 11:08:21.463,0.137,3,1.004
12/17/2014 11:08:21.476,-0.219,3,0.949
12/17/2014 11:08:21.489,-0.148,2.316,0.223
12/17/2014 11:08:21.502,-0.02,1.648,-0.121
12/17/2014 11:08:21.513,0.266,1.527,0.031
12/17/2014 11:08:21.526,0.09,1.91,0.133
12/17/2014 11:08:21.539,0.434,2.426,0.359
12/17/2014 11:08:21.552,0.387,2.652,0.664
12/17/2014 11:08:21.563,0.238,2.391,0.711
12/17/2014 11:08:21.576,0.23,1.652,0.293
12/17/2014 11:08:21.588,0.258,0.695,-0.23
12/17/2014 11:08:21.601,0.352,-0.316,-0.5
12/17/2014 11:08:21.614,0.336,-1.066,-0.52
12/17/2014 11:08:21.627,0.262,-1.492,-0.504
12/17/2014 11:08:21.638,0.184,-1.363,-0.516
12/17/2014 11:08:21.651,0.039,-1.078,-0.375
12/17/2014 11:08:21.664,0.012,-0.941,-0.23
12/17/2014 11:08:21.677,0.055,-0.574,-0.152
12/17/2014 11:08:21.688,0.109,-0.164,-0.223
12/17/2014 11:08:21.701,0.25,-0.016,-0.359
12/17/2014 11:08:21.713,0.484,0.082,-0.34
12/17/2014 11:08:21.726,0.699,0.152,-0.195
12/17/2014 11:08:21.739,0.902,0.566,-0.336
12/17/2014 11:08:21.752,1.266,1.004,-0.816
12/17/2014 11:08:21.763,0.973,1.438,-0.473
12/17/2014 11:08:21.776,0.172,3,0.199
12/17/2014 11:08:21.789,-0.16,3,0.992
12/17/2014 11:08:21.802,-0.148,3,1.285
12/17/2014 11:08:21.813,-0.34,3,1.086
12/17/2014 11:08:21.826,-0.324,2.82,0.918
12/17/2014 11:08:21.838,-0.531,2.148,0.281
12/17/2014 11:08:21.851,-0.301,1.926,-0.016
12/17/2014 11:08:21.864,0.082,1.672,-0.051
12/17/2014 11:08:21.877,0.469,1.039,-0.285
12/17/2014 11:08:21.888,0.781,-0.023,-0.559
12/17/2014 11:08:21.901,0.637,-0.602,-0.859
12/17/2014 11:08:21.914,0.832,-0.734,-0.613
12/17/2014 11:08:21.927,0.746,-0.816,-0.105
12/17/2014 11:08:21.938,0.379,-0.879,-0.031
12/17/2014 11:08:21.951,0.449,-1.113,-0.105
12/17/2014 11:08:21.963,0.32,-1.27,0.059
12/17/2014 11:08:21.976,0.125,-1.004,0.055
12/17/2014 11:08:21.989,-0.145,-0.582,-0.199
12/17/2014 11:08:22.002,-0.215,-0.086,-0.379
12/17/2014 11:08:22.013,0.133,0.063,-0.402
12/17/2014 11:08:22.026,0.219,0.262,-0.242
12/17/2014 11:08:22.039,-0.203,1.395,-0.723
12/17/2014 11:08:22.052,0.223,2.219,-0.816
12/17/2014 11:08:22.063,0.262,2.688,-0.242
12/17/2014 11:08:22.076,-0.332,3,0.895
12/17/2014 11:08:22.088,-0.719,2.918,0.555
12/17/2014 11:08:22.101,-0.641,2.262,-0.25
12/17/2014 11:08:22.114,-0.215,2.094,-0.262
12/17/2014 11:08:22.127,0.301,1.668,0.008
12/17/2014 11:08:22.138,0.559,1.82,0.117
12/17/2014 11:08:22.151,0.445,2.363,0.266
12/17/2014 11:08:22.164,0.195,3,0.848
12/17/2014 11:08:22.177,-0.395,2.777,0.938
12/17/2014 11:08:22.188,-0.441,2.063,0.621
12/17/2014 11:08:22.201,-0.172,1.418,0.176
12/17/2014 11:08:22.213,0.168,0.488,-0.262
12/17/2014 11:08:22.226,0.496,-0.324,-0.539
12/17/2014 11:08:22.239,0.652,-1.098,-0.484
12/17/2014 11:08:22.252,0.574,-1.566,-0.434
12/17/2014 11:08:22.263,0.371,-1.285,-0.258
12/17/2014 11:08:22.276,0.156,-0.785,-0.078
12/17/2014 11:08:22.289,-0.059,-0.477,-0.043
12/17/2014 11:08:22.302,-0.191,-0.27,-0.176
12/17/2014 11:08:22.313,-0.191,0.074,-0.262
12/17/2014 11:08:22.326,-0.012,0.184,-0.297
12/17/2014 11:08:22.338,0.164,0.109,-0.383
12/17/2014 11:08:22.351,0.457,0.168,-0.348
12/17/2014 11:08:22.364,0.617,0.152,-0.309
12/17/2014 11:08:22.377,0.98,0.496,-0.672
12/17/2014 11:08:22.388,1.379,0.457,-1.098
12/17/2014 11:08:22.401,1.121,0.723,-1.09
12/17/2014 11:08:22.414,0.938,2.191,-0.418
12/17/2014 11:08:22.427,1.078,3,0.84
12/17/2014 11:08:22.438,0.969,3,0.953
12/17/2014 11:08:22.451,-0.203,3,0.055
12/17/2014 11:08:22.463,-0.586,3,0.75
12/17/2014 11:08:22.476,-0.82,2.727,0.695
12/17/2014 11:08:22.489,-1.207,2.578,0.25
12/17/2014 11:08:22.502,-0.75,2.109,0.121
12/17/2014 11:08:22.513,-0.109,1.766,0.156
12/17/2014 11:08:22.526,0.391,0.855,0.109
12/17/2014 11:08:22.539,0.637,-0.238,-0.305
12/17/2014 11:08:22.552,0.73,-0.828,-0.773
12/17/2014 11:08:22.563,0.832,-1.426,-0.621
12/17/2014 11:08:22.576,0.816,-1.289,-0.168
12/17/2014 11:08:22.588,0.746,-0.965,0.055
12/17/2014 11:08:22.601,0.68,-0.91,0.078
12/17/2014 11:08:22.614,0.418,-0.77,0.137
12/17/2014 11:08:22.627,0.035,-0.559,0.129
12/17/2014 11:08:22.638,-0.34,-0.199,-0.168
12/17/2014 11:08:22.651,-0.285,0.168,-0.375
12/17/2014 11:08:22.664,-0.125,0.371,-0.363
12/17/2014 11:08:22.677,0.102,0.102,-0.121
12/17/2014 11:08:22.688,-0.121,0.508,0.211
12/17/2014 11:08:22.701,-0.797,1.535,-0.414
12/17/2014 11:08:22.713,-0.652,2.371,-1.348
12/17/2014 11:08:22.726,-0.176,2.305,-0.949
12/17/2014 11:08:22.739,0.207,3,0.461
12/17/2014 11:08:22.752,-0.004,3,1.09
12/17/2014 11:08:22.763,-0.055,2.859,0.371
12/17/2014 11:08:22.776,-0.055,1.922,0.02
12/17/2014 11:08:22.789,-0.039,1.902,0.023
12/17/2014 11:08:22.802,-0.23,2.375,0.227
12/17/2014 11:08:22.813,-0.078,2.656,0.41
12/17/2014 11:08:22.826,0.09,2.832,0.758
12/17/2014 11:08:22.838,0.188,2.199,0.66
12/17/2014 11:08:22.851,0.277,1.914,0.305
12/17/2014 11:08:22.864,0.605,0.824,-0.16
12/17/2014 11:08:22.877,0.883,-0.438,-0.469
12/17/2014 11:08:22.888,0.711,-1.297,-0.445
12/17/2014 11:08:22.901,0.383,-1.707,-0.441
12/17/2014 11:08:22.914,0.129,-1.543,-0.598
12/17/2014 11:08:22.927,-0.082,-1.066,-0.379
12/17/2014 11:08:22.938,-0.168,-0.781,-0.074
12/17/2014 11:08:22.951,-0.246,-0.406,-0.09
12/17/2014 11:08:22.963,-0.223,0.082,-0.137
12/17/2014 11:08:22.976,-0.039,0.266,-0.219
12/17/2014 11:08:22.989,0.188,0.27,-0.316
12/17/2014 11:08:23.002,0.469,0.211,-0.199
12/17/2014 11:08:23.013,0.457,0.324,-0.18
12/17/2014 11:08:23.026,0.797,0.602,-0.344
12/17/2014 11:08:23.039,1.336,0.871,-0.891
12/17/2014 11:08:23.052,1.516,0.746,-0.926
12/17/2014 11:08:23.063,1.207,1.867,-0.375
12/17/2014 11:08:23.076,0.738,3,0.477
12/17/2014 11:08:23.088,0.328,3,0.766
12/17/2014 11:08:23.101,-0.449,3,0.652
12/17/2014 11:08:23.114,-0.5,3,1.156
12/17/2014 11:08:23.127,-0.742,2.309,0.703
12/17/2014 11:08:23.138,-0.785,2.016,0.141
12/17/2014 11:08:23.151,-0.492,1.73,-0.039
12/17/2014 11:08:23.164,0.008,1.473,-0.078
12/17/2014 11:08:23.177,0.402,0.629,-0.199
12/17/2014 11:08:23.188,0.582,-0.262,-0.469
12/17/2014 11:08:23.201,0.805,-0.809,-0.582
12/17/2014 11:08:23.213,0.828,-1.074,-0.406
12/17/2014 11:08:23.226,0.648,-1.031,-0.359
12/17/2014 11:08:23.239,0.664,-1.031,-0.191
12/17/2014 11:08:23.252,0.586,-1.078,-0.02
12/17/2014 11:08:23.263,0.223,-0.879,0.203
12/17/2014 11:08:23.276,-0.137,-0.457,-0.004
12/17/2014 11:08:23.289,-0.426,-0.191,-0.215
12/17/2014 11:08:23.302,-0.031,0.047,-0.301
12/17/2014 11:08:23.313,-0.133,0.152,-0.195
12/17/2014 11:08:23.326,-0.402,0.664,-0.375
12/17/2014 11:08:23.338,-0.461,2.078,-0.887
12/17/2014 11:08:23.351,-0.066,2.391,-0.926
12/17/2014 11:08:23.364,0.176,3,0.539
12/17/2014 11:08:23.377,-0.395,3,1.059
12/17/2014 11:08:23.388,-0.398,2.566,0.113
12/17/2014 11:08:23.401,-0.098,2.195,-0.074
12/17/2014 11:08:23.414,0.246,1.879,0.008
12/17/2014 11:08:23.427,0.422,1.891,0.125
12/17/2014 11:08:23.438,0.324,2.422,0.277
12/17/2014 11:08:23.451,0.176,3,0.684
12/17/2014 11:08:23.463,-0.211,2.762,0.988
12/17/2014 11:08:23.476,-0.34,2.027,0.602
12/17/2014 11:08:23.489,-0.191,1.668,0.137
12/17/2014 11:08:23.502,0.008,0.758,-0.277
12/17/2014 11:08:23.513,0.301,-0.223,-0.512
12/17/2014 11:08:23.526,0.445,-1.086,-0.551
12/17/2014 11:08:23.539,0.441,-1.711,-0.48
12/17/2014 11:08:23.552,0.328,-1.508,-0.363
12/17/2014 11:08:23.563,0.184,-0.949,-0.133
12/17/2014 11:08:23.576,0.008,-0.563,-0.051
12/17/2014 11:08:23.588,-0.148,-0.289,-0.18
12/17/2014 11:08:23.601,-0.172,0.07,-0.277
12/17/2014 11:08:23.614,-0.023,0.145,-0.328
12/17/2014 11:08:23.627,0.207,0.121,-0.406
12/17/2014 11:08:23.638,0.543,0.133,-0.285
12/17/2014 11:08:23.651,0.715,0.207,-0.191
12/17/2014 11:08:23.664,1.105,0.523,-0.48
12/17/2014 11:08:23.677,1.559,0.688,-0.977
12/17/2014 11:08:23.688,1.73,0.793,-1.035
12/17/2014 11:08:23.701,1.324,2.281,-0.434
12/17/2014 11:08:23.713,0.898,3,0.688
12/17/2014 11:08:23.726,0.535,3,0.656
12/17/2014 11:08:23.739,-0.402,3,0.117
12/17/2014 11:08:23.752,-0.406,3,0.945
12/17/2014 11:08:23.763,-0.711,2.488,0.703
12/17/2014 11:08:23.776,-1.082,2.402,0.207
12/17/2014 11:08:23.789,-0.629,1.945,0.148
12/17/2014 11:08:23.802,-0.27,1.48,-0.031
12/17/2014 11:08:23.813,0.082,0.434,-0.047
12/17/2014 11:08:23.826,0.203,-0.227,-0.422
12/17/2014 11:08:23.838,0.453,-0.73,-0.801
12/17/2014 11:08:23.851,0.727,-1.16,-0.637
12/17/2014 11:08:23.864,0.723,-1.012,-0.273
12/17/2014 11:08:23.877,0.816,-0.867,-0.004
12/17/2014 11:08:23.888,0.832,-0.938,0.082
12/17/2014 11:08:23.901,0.559,-0.871,0.211
12/17/2014 11:08:23.914,0.176,-0.586,0.105
12/17/2014 11:08:23.927,-0.301,-0.191,-0.246
12/17/2014 11:08:23.938,-0.203,0.145,-0.41
12/17/2014 11:08:23.951,-0.141,0.246,-0.195
12/17/2014 11:08:23.963,-0.313,0.266,0.145
12/17/2014 11:08:23.976,-0.867,0.992,-0.188
12/17/2014 11:08:23.989,-0.926,2.422,-1.406
12/17/2014 11:08:24.002,-0.563,2.477,-1.34
12/17/2014 11:08:24.013,0.355,3,0.824
12/17/2014 11:08:24.026,0.152,3,1.07
12/17/2014 11:08:24.039,0.199,2.477,0.262
12/17/2014 11:08:24.052,0.246,1.723,-0.078
12/17/2014 11:08:24.063,0.082,1.402,-0.219
12/17/2014 11:08:24.076,0.012,1.805,-0.074
12/17/2014 11:08:24.088,0.164,2.609,0.117
12/17/2014 11:08:24.101,0.355,2.988,0.625
12/17/2014 11:08:24.114,0.086,2.344,0.672
12/17/2014 11:08:24.127,0.113,1.887,0.516
12/17/2014 11:08:24.138,0.203,1.094,-0.031
12/17/2014 11:08:24.151,0.484,-0.074,-0.395
12/17/2014 11:08:24.164,0.543,-0.969,-0.484
12/17/2014 11:08:24.177,0.359,-1.555,-0.34
12/17/2014 11:08:24.188,0.254,-1.645,-0.445
12/17/2014 11:08:24.201,0.113,-1.086,-0.305
12/17/2014 11:08:24.213,-0.012,-0.707,-0.082
12/17/2014 11:08:24.226,-0.164,-0.434,-0.137
12/17/2014 11:08:24.239,-0.156,-0.105,-0.238
12/17/2014 11:08:24.252,0.039,-0.004,-0.313
12/17/2014 11:08:24.263,0.324,0.094,-0.438
12/17/2014 11:08:24.276,0.641,0.137,-0.297
12/17/2014 11:08:24.289,0.699,0.227,-0.297
12/17/2014 11:08:24.302,1.047,0.676,-0.613
12/17/2014 11:08:24.313,1.57,0.883,-1.125
12/17/2014 11:08:24.326,1.484,1.172,-0.926
12/17/2014 11:08:24.338,0.691,3,0.047
12/17/2014 11:08:24.351,0.563,3,0.934
12/17/2014 11:08:24.364,0.047,3,0.5
12/17/2014 11:08:24.377,-0.387,3,0.539
12/17/2014 11:08:24.388,-0.5,3,0.754
12/17/2014 11:08:24.401,-0.777,1.926,0.371
12/17/2014 11:08:24.414,-0.824,1.855,0.117
12/17/2014 11:08:24.427,-0.273,1.582,0.156
12/17/2014 11:08:24.438,0.055,1.254,-0.055
12/17/2014 11:08:24.451,0.48,0.535,-0.082
12/17/2014 11:08:24.463,0.457,-0.336,-0.488
12/17/2014 11:08:24.476,0.445,-0.844,-0.66
12/17/2014 11:08:24.489,0.488,-1.125,-0.387
12/17/2014 11:08:24.502,0.375,-1.031,-0.133
12/17/2014 11:08:24.513,0.52,-1.035,0.004
12/17/2014 11:08:24.526,0.465,-1.105,0.035
12/17/2014 11:08:24.539,0.246,-0.875,0.027
12/17/2014 11:08:24.552,-0.234,-0.477,-0.246
12/17/2014 11:08:24.563,-0.172,0.051,-0.328
12/17/2014 11:08:24.576,0.074,0.195,-0.336
12/17/2014 11:08:24.588,0.16,0.09,-0.188
12/17/2014 11:08:24.601,-0.246,0.621,-0.277
12/17/2014 11:08:24.614,-0.629,2.055,-0.918
12/17/2014 11:08:24.627,-0.121,2.48,-0.953
12/17/2014 11:08:24.638,-0.027,3,0.406
12/17/2014 11:08:24.651,-0.453,3,1.23
12/17/2014 11:08:24.664,-0.445,2.59,0.277
12/17/2014 11:08:24.677,-0.223,2.168,-0.09
12/17/2014 11:08:24.688,0.043,1.645,-0.121
12/17/2014 11:08:24.701,0.301,1.633,0.039
12/17/2014 11:08:24.713,0.27,2.008,0.105
12/17/2014 11:08:24.726,0.406,2.836,0.41
12/17/2014 11:08:24.739,0.035,3,0.859
12/17/2014 11:08:24.752,-0.066,2.363,0.926
12/17/2014 11:08:24.763,0.027,1.723,0.578
12/17/2014 11:08:24.776,0.105,0.656,-0.051
12/17/2014 11:08:24.789,0.148,-0.281,-0.555
12/17/2014 11:08:24.802,0.25,-0.988,-0.605
12/17/2014 11:08:24.813,0.438,-1.473,-0.43
12/17/2014 11:08:24.826,0.473,-1.422,-0.23
12/17/2014 11:08:24.838,0.254,-1.02,-0.113
12/17/2014 11:08:24.851,0.008,-0.715,-0.023
12/17/2014 11:08:24.864,-0.191,-0.426,-0.043
12/17/2014 11:08:24.877,-0.258,0.035,-0.168
12/17/2014 11:08:24.888,-0.098,0.211,-0.383
12/17/2014 11:08:24.901,0.195,0.105,-0.512
12/17/2014 11:08:24.914,0.527,0.059,-0.422
12/17/2014 11:08:24.927,0.918,0.184,-0.414
12/17/2014 11:08:24.938,1.34,0.582,-0.988
12/17/2014 11:08:24.951,1.82,0.43,-0.941
12/17/2014 11:08:24.963,1.395,1.316,-0.738
12/17/2014 11:08:24.976,1.316,2.98,0.254
12/17/2014 11:08:24.989,1.293,3,0.789
12/17/2014 11:08:25.002,0.5,3,0.355
12/17/2014 11:08:25.013,-0.555,3,0.336
12/17/2014 11:08:25.026,-0.723,3,0.891
12/17/2014 11:08:25.039,-0.723,2.695,0.75
12/17/2014 11:08:25.052,-1.043,2.379,0.227
12/17/2014 11:08:25.063,-0.527,1.805,0.199
12/17/2014 11:08:25.076,-0.043,1.367,0.199
12/17/2014 11:08:25.088,0.32,0.605,0.043
12/17/2014 11:08:25.101,0.523,-0.41,-0.582
12/17/2014 11:08:25.114,0.676,-0.859,-0.914
12/17/2014 11:08:25.127,0.91,-1.285,-0.641
12/17/2014 11:08:25.138,0.871,-1.195,-0.203
12/17/2014 11:08:25.151,0.836,-0.945,0.023
12/17/2014 11:08:25.164,0.723,-0.867,0.07
12/17/2014 11:08:25.177,0.461,-0.613,0.133
12/17/2014 11:08:25.188,-0.016,-0.375,0.207
12/17/2014 11:08:25.201,-0.402,-0.059,-0.051
12/17/2014 11:08:25.213,-0.418,0.211,-0.383
12/17/2014 11:08:25.226,-0.305,0.422,-0.348
12/17/2014 11:08:25.239,-0.258,0.094,0.039
12/17/2014 11:08:25.252,-0.469,0.473,0.273
12/17/2014 11:08:25.263,-0.996,1.668,-0.785
12/17/2014 11:08:25.276,-0.449,2.195,-1.68
12/17/2014 11:08:25.289,0.352,2.324,-0.5
12/17/2014 11:08:25.302,0.598,3,0.984
12/17/2014 11:08:25.313,0.16,3,0.602
12/17/2014 11:08:25.326,-0.102,2.473,0.09
12/17/2014 11:08:25.338,-0.047,1.629,-0.137
12/17/2014 11:08:25.351,0,1.34,-0.129
12/17/2014 11:08:25.364,-0.125,1.797,-0.004
12/17/2014 11:08:25.377,0.164,2.449,0.078
12/17/2014 11:08:25.388,0.207,3,0.578
12/17/2014 11:08:25.401,0.539,2.543,0.848
12/17/2014 11:08:25.414,0.598,1.949,0.559
12/17/2014 11:08:25.427,0.625,0.887,-0.055
12/17/2014 11:08:25.438,0.414,-0.367,-0.398
12/17/2014 11:08:25.451,0.188,-1.254,-0.469
12/17/2014 11:08:25.463,0.039,-1.668,-0.461
12/17/2014 11:08:25.476,0.035,-1.512,-0.477
12/17/2014 11:08:25.489,-0.012,-0.973,-0.145
12/17/2014 11:08:25.502,-0.059,-0.699,0.125
12/17/2014 11:08:25.513,-0.176,-0.34,0.059
12/17/2014 11:08:25.526,-0.133,0.168,-0.125
12/17/2014 11:08:25.539,0.027,0.426,-0.355
12/17/2014 11:08:25.552,0.352,0.301,-0.418
12/17/2014 11:08:25.563,0.68,0.121,-0.266
12/17/2014 11:08:25.576,0.598,0.227,-0.242
12/17/2014 11:08:25.588,0.992,0.559,-0.434
12/17/2014 11:08:25.601,1.52,0.766,-1.121
12/17/2014 11:08:25.614,1.598,0.652,-1.109
12/17/2014 11:08:25.627,0.941,2.172,-0.617
12/17/2014 11:08:25.638,0.914,3,0.617
12/17/2014 11:08:25.651,0.43,3,0.855
12/17/2014 11:08:25.664,-0.121,3,0.754
12/17/2014 11:08:25.677,-0.277,3,0.898
12/17/2014 11:08:25.688,-0.836,2.555,0.738
12/17/2014 11:08:25.701,-1.164,2.496,0.207
12/17/2014 11:08:25.713,-0.531,2.27,0.324
12/17/2014 11:08:25.726,-0.059,1.203,0.262
12/17/2014 11:08:25.739,0.266,0.559,0.184
12/17/2014 11:08:25.752,0.395,-0.25,-0.258
12/17/2014 11:08:25.763,0.566,-1.039,-0.852
12/17/2014 11:08:25.776,0.832,-1.473,-0.762
12/17/2014 11:08:25.789,0.891,-1.297,-0.215
12/17/2014 11:08:25.802,0.824,-0.926,0.07
12/17/2014 11:08:25.813,0.738,-0.887,0.102
12/17/2014 11:08:25.826,0.379,-0.82,0.133
12/17/2014 11:08:25.838,-0.098,-0.551,0.035
12/17/2014 11:08:25.851,-0.344,-0.023,-0.262
12/17/2014 11:08:25.864,-0.176,0.477,-0.445
12/17/2014 11:08:25.877,0.031,0.453,-0.422
12/17/2014 11:08:25.888,0.078,0.203,-0.059
12/17/2014 11:08:25.901,-0.273,0.801,0.137
12/17/2014 11:08:25.914,-0.891,1.992,-0.801
12/17/2014 11:08:25.927,-0.461,2.406,-1.316
12/17/2014 11:08:25.938,0.152,2.539,0.164
12/17/2014 11:08:25.951,0.32,3,0.984
12/17/2014 11:08:25.963,-0.148,2.824,0.473
12/17/2014 11:08:25.976,-0.121,2.191,0.012
12/17/2014 11:08:25.989,-0.004,1.594,-0.066
12/17/2014 11:08:26.002,-0.012,1.727,0.113
12/17/2014 11:08:26.013,-0.055,2.25,0.316
12/17/2014 11:08:26.026,0.172,2.723,0.316
12/17/2014 11:08:26.039,0.176,2.969,0.695
12/17/2014 11:08:26.052,0.121,2.32,0.824
12/17/2014 11:08:26.063,0.004,1.68,0.516
12/17/2014 11:08:26.076,0.07,0.695,-0.117
12/17/2014 11:08:26.088,0.27,-0.563,-0.656
12/17/2014 11:08:26.101,0.445,-1.391,-0.727
12/17/2014 11:08:26.114,0.559,-1.707,-0.547
12/17/2014 11:08:26.127,0.488,-1.531,-0.434
12/17/2014 11:08:26.138,0.156,-0.922,-0.184
12/17/2014 11:08:26.151,-0.078,-0.484,-0.02
12/17/2014 11:08:26.164,-0.191,-0.145,-0.023
12/17/2014 11:08:26.177,-0.188,0.195,-0.105
12/17/2014 11:08:26.188,-0.098,0.355,-0.242
12/17/2014 11:08:26.201,0.168,0.313,-0.324
12/17/2014 11:08:26.213,0.523,0.203,-0.211
12/17/2014 11:08:26.226,0.73,0.219,-0.203
12/17/2014 11:08:26.239,1.051,0.602,-0.676
12/17/2014 11:08:26.252,1.301,0.648,-1.094
12/17/2014 11:08:26.263,1.023,1.02,-1.031
12/17/2014 11:08:26.276,0.703,2.617,-0.215
12/17/2014 11:08:26.289,1.082,3,1.148
12/17/2014 11:08:26.302,0.41,3,0.715
12/17/2014 11:08:26.313,-0.098,3,0.668
12/17/2014 11:08:26.326,-0.309,3,0.723
12/17/2014 11:08:26.338,-0.793,2.555,0.484
12/17/2014 11:08:26.351,-1.012,2.609,0.207
12/17/2014 11:08:26.364,-0.371,2.004,0.199
12/17/2014 11:08:26.377,-0.031,0.898,0.094
12/17/2014 11:08:26.388,0.527,0.438,0.129
12/17/2014 11:08:26.401,0.543,-0.457,-0.551
12/17/2014 11:08:26.414,0.59,-0.895,-0.941
12/17/2014 11:08:26.427,0.844,-1.098,-0.582
12/17/2014 11:08:26.438,0.785,-1,-0.203
12/17/2014 11:08:26.451,0.754,-0.969,-0.16
12/17/2014 11:08:26.463,0.809,-1.02,0.051
12/17/2014 11:08:26.476,0.594,-0.73,0.281
12/17/2014 11:08:26.489,0.121,-0.336,0.32
12/17/2014 11:08:26.502,-0.285,0.09,-0.137
12/17/2014 11:08:26.513,-0.219,0.27,-0.379
12/17/2014 11:08:26.526,-0.141,0.477,-0.246
12/17/2014 11:08:26.539,-0.223,0.238,0.043
12/17/2014 11:08:26.552,-0.594,0.684,0.039
12/17/2014 11:08:26.563,-0.895,2.004,-1.059
12/17/2014 11:08:26.576,-0.285,2,-1.43
12/17/2014 11:08:26.588,0.375,2.367,-0.117
12/17/2014 11:08:26.601,0.098,3,0.688
12/17/2014 11:08:26.614,-0.004,2.773,0.227
12/17/2014 11:08:26.627,-0.164,2.246,-0.156
12/17/2014 11:08:26.638,-0.063,1.859,-0.273
12/17/2014 11:08:26.651,0.211,1.281,-0.227
12/17/2014 11:08:26.664,0.156,1.59,-0.09
12/17/2014 11:08:26.677,0.246,2.582,0.113
12/17/2014 11:08:26.688,0.105,3,0.578
12/17/2014 11:08:26.701,-0.047,2.688,1.051
12/17/2014 11:08:26.713,0.105,1.984,0.813
12/17/2014 11:08:26.726,0.176,1.301,0.082
12/17/2014 11:08:26.739,0.402,0.309,-0.48
12/17/2014 11:08:26.752,0.434,-0.629,-0.668
12/17/2014 11:08:26.763,0.457,-1.305,-0.445
12/17/2014 11:08:26.776,0.383,-1.469,-0.359
12/17/2014 11:08:26.789,0.262,-1.031,-0.086
12/17/2014 11:08:26.802,0.094,-0.68,0.148
12/17/2014 11:08:26.813,-0.031,-0.473,0.109
12/17/2014 11:08:26.826,-0.199,-0.188,-0.215
12/17/2014 11:08:26.838,-0.172,0.105,-0.426
12/17/2014 11:08:26.851,-0.051,0.148,-0.516
12/17/2014 11:08:26.864,0.129,0.078,-0.523
12/17/2014 11:08:26.877,0.391,0.102,-0.355
12/17/2014 11:08:26.888,0.789,0.309,-0.523
12/17/2014 11:08:26.901,1.113,0.469,-1.094
12/17/2014 11:08:26.914,0.934,0.488,-1.035
12/17/2014 11:08:26.927,0.867,1.406,-0.578
12/17/2014 11:08:26.938,1.434,2.902,0.527
12/17/2014 11:08:26.951,1.504,3,0.977
12/17/2014 11:08:26.963,0.703,3,0.254
12/17/2014 11:08:26.976,-0.418,3,0.117
12/17/2014 11:08:26.989,-0.754,3,0.785
12/17/2014 11:08:27.002,-0.813,2.547,0.59
12/17/2014 11:08:27.013,-1.082,2.535,0.262
12/17/2014 11:08:27.026,-0.629,2.102,0.273
12/17/2014 11:08:27.039,0.16,1.527,0.211
12/17/2014 11:08:27.052,0.336,0.645,0.063
12/17/2014 11:08:27.063,0.59,0.012,-0.031
12/17/2014 11:08:27.076,0.664,-0.945,-0.859
12/17/2014 11:08:27.088,0.625,-1.242,-1.07
12/17/2014 11:08:27.101,0.68,-1.113,-0.508
12/17/2014 11:08:27.114,0.855,-0.816,-0.055
12/17/2014 11:08:27.127,0.793,-0.641,0.238
12/17/2014 11:08:27.138,0.512,-0.477,0.348
12/17/2014 11:08:27.151,0.203,-0.352,0.301
12/17/2014 11:08:27.164,-0.168,-0.152,0.035
12/17/2014 11:08:27.177,-0.336,0.051,-0.285
12/17/2014 11:08:27.188,-0.227,0.344,-0.273
12/17/2014 11:08:27.201,-0.301,0.141,0.098
12/17/2014 11:08:27.213,-0.656,0.734,-0.539
12/17/2014 11:08:27.226,-0.277,1.977,-1.473
12/17/2014 11:08:27.239,0.617,2.039,-1.172
12/17/2014 11:08:27.252,0.746,3,0.496
12/17/2014 11:08:27.263,-0.184,3,0.453
12/17/2014 11:08:27.276,-0.555,2.703,-0.16
12/17/2014 11:08:27.289,-0.324,1.977,-0.305
12/17/2014 11:08:27.302,-0.086,1.688,-0.281
12/17/2014 11:08:27.313,-0.004,1.633,0.07
12/17/2014 11:08:27.326,0.145,1.973,0.145
12/17/2014 11:08:27.338,0.43,2.25,0.18
12/17/2014 11:08:27.351,0.371,2.41,0.523
12/17/2014 11:08:27.364,0.195,2.199,0.695
12/17/2014 11:08:27.377,0.086,1.715,0.438
12/17/2014 11:08:27.388,0.215,0.914,-0.242
12/17/2014 11:08:27.401,0.57,-0.191,-0.543
12/17/2014 11:08:27.414,0.508,-1.195,-0.512
12/17/2014 11:08:27.427,0.324,-1.539,-0.418
12/17/2014 11:08:27.438,0.172,-1.266,-0.496
12/17/2014 11:08:27.451,-0.004,-0.523,-0.375
12/17/2014 11:08:27.463,-0.203,-0.082,-0.18
12/17/2014 11:08:27.476,-0.293,0.102,-0.02
12/17/2014 11:08:27.489,-0.266,0.238,-0.008
12/17/2014 11:08:27.502,-0.184,0.387,-0.023
12/17/2014 11:08:27.513,-0.078,0.328,-0.098
12/17/2014 11:08:27.526,0.199,0.051,-0.203
12/17/2014 11:08:27.539,0.441,-0.043,-0.309
12/17/2014 11:08:27.552,0.555,0.016,-0.328
12/17/2014 11:08:27.563,0.922,0.078,-0.309
12/17/2014 11:08:27.576,1.473,0.387,-0.867
12/17/2014 11:08:27.588,1.574,0.25,-1.375
12/17/2014 11:08:27.601,1.367,1.094,-1.254
12/17/2014 11:08:27.614,0.902,3,-0.027
12/17/2014 11:08:27.627,1.035,3,1.449
12/17/2014 11:08:27.638,0.242,3,0.457
12/17/2014 11:08:27.651,-0.055,3,0.727
12/17/2014 11:08:27.664,-0.074,2.32,0.598
12/17/2014 11:08:27.677,-0.824,2.102,0.09
12/17/2014 11:08:27.688,-1.078,2.344,0.109
12/17/2014 11:08:27.701,-0.465,1.793,0.105
12/17/2014 11:08:27.713,-0.008,1.133,0.063
12/17/2014 11:08:27.726,0.445,0.285,0.063
12/17/2014 11:08:27.739,0.641,-0.828,-0.762
12/17/2014 11:08:27.752,0.895,-1.379,-1.066
12/17/2014 11:08:27.763,0.848,-1.363,-0.594
12/17/2014 11:08:27.776,0.645,-0.996,-0.168
12/17/2014 11:08:27.789,0.605,-0.75,0.195
12/17/2014 11:08:27.802,0.426,-0.605,0.449
12/17/2014 11:08:27.813,0.094,-0.293,0.422
12/17/2014 11:08:27.826,-0.176,0.074,0.27
12/17/2014 11:08:27.838,-0.152,0.176,-0.266
12/17/2014 11:08:27.851,-0.125,0.215,-0.531
12/17/2014 11:08:27.864,-0.277,0.32,-0.117
12/17/2014 11:08:27.877,-0.664,0.555,0.184
12/17/2014 11:08:27.888,-0.82,1.715,-1.113
12/17/2014 11:08:27.901,-0.098,2.027,-1.859
12/17/2014 11:08:27.914,1.176,3,-0.332
12/17/2014 11:08:27.927,0.91,3,0.594
12/17/2014 11:08:27.938,0.238,2.965,0.074
12/17/2014 11:08:27.951,-0.32,2.184,-0.07
12/17/2014 11:08:27.963,-0.547,1.789,-0.352
12/17/2014 11:08:27.976,-0.523,1.527,-0.301
12/17/2014 11:08:27.989,-0.563,2.141,-0.035
12/17/2014 11:08:28.002,0.047,2.332,0.23
12/17/2014 11:08:28.013,0.102,2.73,0.598
12/17/2014 11:08:28.026,0.289,2.141,0.762
12/17/2014 11:08:28.039,0.512,1.762,0.395
12/17/2014 11:08:28.052,0.668,1.234,-0.199
12/17/2014 11:08:28.063,0.895,0.223,-0.563
12/17/2014 11:08:28.076,0.867,-0.918,-0.668
12/17/2014 11:08:28.088,0.598,-1.57,-0.586
12/17/2014 11:08:28.101,0.293,-1.445,-0.539
12/17/2014 11:08:28.114,0.066,-1.012,-0.285
12/17/2014 11:08:28.127,-0.02,-0.719,0.031
12/17/2014 11:08:28.138,-0.109,-0.617,0.039
12/17/2014 11:08:28.151,-0.219,-0.219,-0.148
12/17/2014 11:08:28.164,-0.02,0.086,-0.281
12/17/2014 11:08:28.177,0.129,0.086,-0.426
12/17/2014 11:08:28.188,0.219,0.066,-0.434
12/17/2014 11:08:28.201,0.223,0.082,-0.234
12/17/2014 11:08:28.213,0.27,0.211,-0.121
12/17/2014 11:08:28.226,0.781,0.531,-0.352
12/17/2014 11:08:28.239,1.352,0.813,-0.859
12/17/2014 11:08:28.252,1.453,0.715,-1.109
12/17/2014 11:08:28.263,1.168,2.27,-0.43
12/17/2014 11:08:28.276,1.098,3,1.059
12/17/2014 11:08:28.289,0.625,3,0.652
12/17/2014 11:08:28.302,-0.18,3,0.227
12/17/2014 11:08:28.313,-0.191,3,0.551
12/17/2014 11:08:28.326,-0.691,2.652,0.465
12/17/2014 11:08:28.338,-1.074,2.766,0.309
12/17/2014 11:08:28.351,-0.477,2.328,0.406
12/17/2014 11:08:28.364,-0.141,1.055,0.145
12/17/2014 11:08:28.377,0.336,0.719,0.227
12/17/2014 11:08:28.388,0.34,0.051,-0.027
12/17/2014 11:08:28.401,0.254,-0.652,-0.715
12/17/2014 11:08:28.414,0.41,-1.043,-1.047
12/17/2014 11:08:28.427,0.508,-1.148,-0.746
12/17/2014 11:08:28.438,0.582,-0.977,-0.293
12/17/2014 11:08:28.451,0.594,-0.926,0.113
12/17/2014 11:08:28.463,0.445,-0.793,0.418
12/17/2014 11:08:28.476,0.199,-0.473,0.293
12/17/2014 11:08:28.489,-0.113,-0.109,-0.063
12/17/2014 11:08:28.502,0.035,0.184,-0.195
12/17/2014 11:08:28.513,0.07,0.426,-0.328
12/17/2014 11:08:28.526,0.059,0.25,-0.145
12/17/2014 11:08:28.539,-0.219,0.719,-0.18
12/17/2014 11:08:28.552,-0.383,1.852,-1.254
12/17/2014 11:08:28.563,0.32,1.801,-1.418
12/17/2014 11:08:28.576,0.801,2.848,0.066
12/17/2014 11:08:28.588,-0.035,3,0.766
12/17/2014 11:08:28.601,-0.52,2.93,0.09
12/17/2014 11:08:28.614,-0.469,2.195,-0.188
12/17/2014 11:08:28.627,-0.227,1.633,-0.293
12/17/2014 11:08:28.638,-0.129,1.699,-0.094
12/17/2014 11:08:28.651,0.09,2.285,0.035
12/17/2014 11:08:28.664,0.477,2.598,0.203
12/17/2014 11:08:28.677,0.406,2.57,0.582
12/17/2014 11:08:28.688,0.129,2.148,0.645
12/17/2014 11:08:28.701,-0.121,1.613,0.293
12/17/2014 11:08:28.713,0,0.73,-0.262
12/17/2014 11:08:28.726,0.223,-0.367,-0.605
12/17/2014 11:08:28.739,0.426,-1.145,-0.469
12/17/2014 11:08:28.752,0.52,-1.43,-0.328
12/17/2014 11:08:28.763,0.391,-1.109,-0.328
12/17/2014 11:08:28.776,0.148,-0.523,-0.141
12/17/2014 11:08:28.789,-0.109,-0.18,-0.023
12/17/2014 11:08:28.802,-0.25,-0.074,-0.082
12/17/2014 11:08:28.813,-0.285,0.086,-0.266
12/17/2014 11:08:28.826,-0.184,0.203,-0.289
12/17/2014 11:08:28.838,-0.074,0.133,-0.273
12/17/2014 11:08:28.851,0.129,0.012,-0.246
12/17/2014 11:08:28.864,0.371,0.016,-0.254
12/17/2014 11:08:28.877,0.672,0.121,-0.313
12/17/2014 11:08:28.888,1.207,0.395,-0.809
12/17/2014 11:08:28.901,1.508,0.172,-1.168
12/17/2014 11:08:28.914,1.348,0.602,-1.391
12/17/2014 11:08:28.927,1.152,2.453,-0.305
12/17/2014 11:08:28.938,1.266,3,1.363
12/17/2014 11:08:28.951,0.867,3,0.824
12/17/2014 11:08:28.963,-0.09,3,0.594
12/17/2014 11:08:28.976,-0.082,2.777,0.668
12/17/2014 11:08:28.989,-0.531,1.992,0.277
12/17/2014 11:08:29.002,-1.324,2.457,0
12/17/2014 11:08:29.013,-0.984,2.34,0.203
12/17/2014 11:08:29.026,-0.469,1.094,0.051
12/17/2014 11:08:29.039,0.289,0.582,0.145
12/17/2014 11:08:29.052,0.664,-0.438,-0.48
12/17/2014 11:08:29.063,0.797,-1.297,-0.902
12/17/2014 11:08:29.076,0.75,-1.449,-0.684
12/17/2014 11:08:29.088,0.625,-1.145,-0.266
12/17/2014 11:08:29.101,0.645,-0.852,0.105
12/17/2014 11:08:29.114,0.5,-0.629,0.379
12/17/2014 11:08:29.127,0.223,-0.293,0.336
12/17/2014 11:08:29.138,0.168,-0.043,0.117
12/17/2014 11:08:29.151,-0.043,0.004,-0.277
12/17/2014 11:08:29.164,-0.148,0.117,-0.43
12/17/2014 11:08:29.177,-0.18,0.273,-0.184
12/17/2014 11:08:29.188,-0.199,0.098,0.086
12/17/2014 11:08:29.201,-0.219,0.563,0.324
12/17/2014 11:08:29.213,-0.652,1.387,-0.793
12/17/2014 11:08:29.226,-0.18,1.895,-1.852
12/17/2014 11:08:29.239,0.707,1.863,-0.793
12/17/2014 11:08:29.252,0.984,3,0.512
12/17/2014 11:08:29.263,0.039,3,0.496
12/17/2014 11:08:29.276,-0.598,2.758,0.172
12/17/2014 11:08:29.289,-0.594,1.902,-0.184
12/17/2014 11:08:29.302,-0.383,1.469,-0.137
12/17/2014 11:08:29.313,-0.535,1.918,0.008
12/17/2014 11:08:29.326,0.059,2.184,-0.02
12/17/2014 11:08:29.338,0.672,2.613,0.223
12/17/2014 11:08:29.351,0.594,2.242,0.582
12/17/2014 11:08:29.364,0.426,1.762,0.426
12/17/2014 11:08:29.377,0.352,1.316,0.016
12/17/2014 11:08:29.388,0.316,0.441,-0.336
12/17/2014 11:08:29.401,0.363,-0.77,-0.43
12/17/2014 11:08:29.414,0.402,-1.434,-0.309
12/17/2014 11:08:29.427,0.277,-1.258,-0.309
12/17/2014 11:08:29.438,0.078,-0.902,-0.145
12/17/2014 11:08:29.451,-0.066,-0.668,0.051
12/17/2014 11:08:29.463,-0.199,-0.504,0.055
12/17/2014 11:08:29.476,-0.367,-0.125,-0.121
12/17/2014 11:08:29.489,-0.242,0.203,-0.293
12/17/2014 11:08:29.502,0.086,0.09,-0.379
12/17/2014 11:08:29.513,0.32,0.023,-0.32
12/17/2014 11:08:29.526,0.465,0.145,-0.293
12/17/2014 11:08:29.539,0.867,0.387,-0.648
12/17/2014 11:08:29.552,1.52,0.418,-1.109
12/17/2014 11:08:29.563,1.422,0.406,-1.309
12/17/2014 11:08:29.576,1.148,1.918,-0.75
12/17/2014 11:08:29.588,1.809,3,0.605
12/17/2014 11:08:29.601,1.695,3,0.723
12/17/2014 11:08:29.614,0.441,3,0.352
12/17/2014 11:08:29.627,-0.043,3,0.723
12/17/2014 11:08:29.638,-0.371,2.664,0.543
12/17/2014 11:08:29.651,-0.852,2.379,0.188
12/17/2014 11:08:29.664,-1.133,2.57,0.172
12/17/2014 11:08:29.677,-0.809,1.883,0.395
12/17/2014 11:08:29.688,-0.207,1,0.109
12/17/2014 11:08:29.701,0.156,0.141,0.16
12/17/2014 11:08:29.713,0.34,-0.711,-0.258
12/17/2014 11:08:29.726,0.223,-1.234,-0.68
12/17/2014 11:08:29.739,0.836,-1.84,-0.734
12/17/2014 11:08:29.752,0.969,-1.469,-0.262
12/17/2014 11:08:29.763,0.906,-1.07,0.012
12/17/2014 11:08:29.776,0.68,-0.703,0.188
12/17/2014 11:08:29.789,0.398,-0.191,0.309
12/17/2014 11:08:29.802,0.383,0.129,0.078
12/17/2014 11:08:29.813,0.246,0.301,-0.105
12/17/2014 11:08:29.826,0.191,0.465,-0.32
12/17/2014 11:08:29.838,0.082,0.629,-0.203
12/17/2014 11:08:29.851,-0.148,0.504,0.086
12/17/2014 11:08:29.864,-0.383,0.918,0.441
12/17/2014 11:08:29.877,-0.703,1.293,-0.031
12/17/2014 11:08:29.888,-0.617,1.828,-1.613
12/17/2014 11:08:29.901,0.191,0.938,-1.695
12/17/2014 11:08:29.914,0.895,1.676,-0.309
12/17/2014 11:08:29.927,0.629,3,0.023
12/17/2014 11:08:29.938,0.313,3,0.035
12/17/2014 11:08:29.951,-0.363,2.5,0.133
12/17/2014 11:08:29.963,-0.449,1.68,-0.27
12/17/2014 11:08:29.976,-0.371,1.797,-0.242
12/17/2014 11:08:29.989,-0.613,2.656,0.129
12/17/2014 11:08:30.002,-0.145,2.961,0.141
12/17/2014 11:08:30.013,-0.086,3,0.848
12/17/2014 11:08:30.026,0,2.391,1.094
12/17/2014 11:08:30.039,0.133,1.473,0.52
12/17/2014 11:08:30.052,0.164,0.902,-0.211
12/17/2014 11:08:30.063,0.348,0.109,-0.625
12/17/2014 11:08:30.076,0.578,-1.012,-0.789
12/17/2014 11:08:30.088,0.664,-1.52,-0.625
12/17/2014 11:08:30.101,0.57,-1.219,-0.23
12/17/2014 11:08:30.114,0.508,-0.863,0.285
12/17/2014 11:08:30.127,0.34,-0.766,0.273
12/17/2014 11:08:30.138,0.035,-0.504,-0.098
12/17/2014 11:08:30.151,-0.043,-0.121,-0.277
12/17/2014 11:08:30.164,-0.012,0,-0.352
12/17/2014 11:08:30.177,-0.078,-0.051,-0.449
12/17/2014 11:08:30.188,-0.141,-0.063,-0.344
12/17/2014 11:08:30.201,-0.098,0.059,-0.387
12/17/2014 11:08:30.213,0.422,0.586,-0.758
12/17/2014 11:08:30.226,0.719,0.563,-1.125
12/17/2014 11:08:30.239,0.594,1.172,-1.055
12/17/2014 11:08:30.252,1.238,2.141,0.07
12/17/2014 11:08:30.263,2.059,3,1.215
12/17/2014 11:08:30.276,1.688,3,0.57
12/17/2014 11:08:30.289,0.434,3,-0.285
12/17/2014 11:08:30.302,-0.09,2.957,0.125
12/17/2014 11:08:30.313,-0.41,2.168,0.367
12/17/2014 11:08:30.326,-1.195,2.469,0.215
12/17/2014 11:08:30.338,-1.371,2.973,0.359
12/17/2014 11:08:30.351,-0.555,2.363,0.496
12/17/2014 11:08:30.364,0.141,1.184,0.344
12/17/2014 11:08:30.377,0.609,0.492,0.23
12/17/2014 11:08:30.388,0.594,-0.195,-0.387
12/17/2014 11:08:30.401,0.563,-1.055,-0.738
12/17/2014 11:08:30.414,0.863,-1.633,-0.895
12/17/2014 11:08:30.427,0.871,-1.316,-0.457
12/17/2014 11:08:30.438,0.801,-1.004,-0.035
12/17/2014 11:08:30.451,0.566,-0.668,0.273
12/17/2014 11:08:30.463,0.32,-0.223,0.402
12/17/2014 11:08:30.476,0.191,-0.031,0.137
12/17/2014 11:08:30.489,-0.055,0.133,-0.191
12/17/2014 11:08:30.502,-0.27,0.336,-0.422
12/17/2014 11:08:30.513,-0.246,0.422,-0.223
12/17/2014 11:08:30.526,-0.406,0.25,0.039
12/17/2014 11:08:30.539,-0.785,0.969,-0.504
12/17/2014 11:08:30.552,-0.293,1.973,-1.418
12/17/2014 11:08:30.563,0.141,1.895,-1.16
12/17/2014 11:08:30.576,0.617,3,0.215
12/17/2014 11:08:30.588,-0.074,3,0.656
12/17/2014 11:08:30.601,-0.453,2.504,0.031
12/17/2014 11:08:30.614,-0.496,1.883,-0.355
12/17/2014 11:08:30.627,-0.215,1.453,-0.371
12/17/2014 11:08:30.638,0.02,1.313,-0.145
12/17/2014 11:08:30.651,0.262,1.84,-0.055
12/17/2014 11:08:30.664,0.805,2.34,0
12/17/2014 11:08:30.677,0.68,2.973,0.586
12/17/2014 11:08:30.688,0.418,2.215,0.809
12/17/2014 11:08:30.701,0.238,1.699,0.324
12/17/2014 11:08:30.713,0.227,0.934,-0.289
12/17/2014 11:08:30.726,0.313,-0.164,-0.504
12/17/2014 11:08:30.739,0.207,-1.211,-0.469
12/17/2014 11:08:30.752,0.027,-1.43,-0.379
12/17/2014 11:08:30.763,-0.074,-1.121,-0.41
12/17/2014 11:08:30.776,-0.18,-0.633,-0.156
12/17/2014 11:08:30.789,-0.168,-0.383,0.051
12/17/2014 11:08:30.802,-0.184,-0.164,0.023
12/17/2014 11:08:30.813,-0.164,0.258,-0.113
12/17/2014 11:08:30.826,-0.051,0.375,-0.254
12/17/2014 11:08:30.838,0.184,0.152,-0.367
12/17/2014 11:08:30.851,0.43,-0.02,-0.262
12/17/2014 11:08:30.864,0.664,0.047,-0.305
12/17/2014 11:08:30.877,1.105,0.379,-0.836
12/17/2014 11:08:30.888,1.586,0.105,-1.125
12/17/2014 11:08:30.901,1.332,0.605,-1.199
12/17/2014 11:08:30.914,1.359,2.391,-0.281
12/17/2014 11:08:30.927,1.77,3,1.063
12/17/2014 11:08:30.938,1.219,3,0.648
12/17/2014 11:08:30.951,-0.109,3,0.254
12/17/2014 11:08:30.963,-0.316,2.984,0.484
12/17/2014 11:08:30.976,-0.52,2.188,0.324
12/17/2014 11:08:30.989,-1.188,2.301,0.094
12/17/2014 11:08:31.002,-1.242,2.18,0.188
12/17/2014 11:08:31.013,-0.496,1.848,0.309
12/17/2014 11:08:31.026,-0.063,0.664,0.191
12/17/2014 11:08:31.039,0.313,0.297,-0.063
12/17/2014 11:08:31.052,0.465,-0.262,-0.539
12/17/2014 11:08:31.063,0.953,-1.184,-0.645
12/17/2014 11:08:31.076,0.93,-1.441,-0.664
12/17/2014 11:08:31.088,0.785,-1.309,-0.262
12/17/2014 11:08:31.101,0.648,-0.922,0.23
12/17/2014 11:08:31.114,0.402,-0.492,0.383
12/17/2014 11:08:31.127,0.172,-0.168,0.168
12/17/2014 11:08:31.138,0.152,-0.105,-0.07
12/17/2014 11:08:31.151,-0.051,0.035,-0.285
12/17/2014 11:08:31.164,-0.129,0.25,-0.125
12/17/2014 11:08:31.177,-0.262,0.172,-0.004
12/17/2014 11:08:31.188,-0.512,0.629,0.164
12/17/2014 11:08:31.201,-0.793,1.691,-1.031
12/17/2014 11:08:31.213,-0.059,1.832,-1.664
12/17/2014 11:08:31.226,0.602,2.418,-0.293
12/17/2014 11:08:31.239,0.461,3,0.66
12/17/2014 11:08:31.252,-0.109,3,0.348
12/17/2014 11:08:31.263,-0.691,2.41,-0.051
12/17/2014 11:08:31.276,-0.75,1.645,-0.379
12/17/2014 11:08:31.289,-0.488,1.281,-0.32
12/17/2014 11:08:31.302,-0.449,1.727,-0.023
12/17/2014 11:08:31.313,0.191,2.164,-0.074
12/17/2014 11:08:31.326,0.723,2.762,0.191
12/17/2014 11:08:31.338,0.758,2.309,0.703
12/17/2014 11:08:31.351,0.613,1.816,0.617
12/17/2014 11:08:31.364,0.355,1.289,0.09
12/17/2014 11:08:31.377,0.18,0.465,-0.422
12/17/2014 11:08:31.388,0.047,-0.602,-0.691
12/17/2014 11:08:31.401,0.09,-1.418,-0.566
12/17/2014 11:08:31.414,0.18,-1.273,-0.324
12/17/2014 11:08:31.427,0.281,-0.836,-0.012
12/17/2014 11:08:31.438,0.34,-0.641,0.258
12/17/2014 11:08:31.451,0.207,-0.66,0.148
12/17/2014 11:08:31.463,-0.039,-0.316,-0.133
12/17/2014 11:08:31.476,-0.121,0.055,-0.367
12/17/2014 11:08:31.489,-0.066,0.027,-0.496
12/17/2014 11:08:31.502,0.121,-0.09,-0.371
12/17/2014 11:08:31.513,0.582,0.129,-0.34
12/17/2014 11:08:31.526,1.152,0.566,-1.047
12/17/2014 11:08:31.539,1.453,0.438,-1.137
12/17/2014 11:08:31.552,1.418,1.594,-0.773
12/17/2014 11:08:31.563,2.297,3,0.672
12/17/2014 11:08:31.576,2.563,3,0.75
12/17/2014 11:08:31.588,1.305,3,0.105
12/17/2014 11:08:31.601,0.172,3,0.047
12/17/2014 11:08:31.614,-0.504,2.82,0.367
12/17/2014 11:08:31.627,-0.809,2.746,0.371
12/17/2014 11:08:31.638,-1.344,2.688,0.277
12/17/2014 11:08:31.651,-1.215,2.281,0.387
12/17/2014 11:08:31.664,-0.355,1.547,0.496
12/17/2014 11:08:31.677,0.07,0.781,0.227
12/17/2014 11:08:31.688,0.082,0.219,0.414
12/17/2014 11:08:31.701,0.027,-0.527,-0.055
12/17/2014 11:08:31.713,-0.059,-1.078,-0.602
12/17/2014 11:08:31.726,0.051,-1.563,-0.863
12/17/2014 11:08:31.739,0.215,-1.668,-0.648
12/17/2014 11:08:31.752,0.391,-1.086,-0.16
12/17/2014 11:08:31.763,0.418,-0.582,0.23
12/17/2014 11:08:31.776,0.512,-0.297,0.191
12/17/2014 11:08:31.789,0.594,-0.285,-0.137
12/17/2014 11:08:31.802,0.355,-0.074,-0.285
12/17/2014 11:08:31.813,-0.051,0.359,-0.254
12/17/2014 11:08:31.826,-0.133,0.746,0.141
12/17/2014 11:08:31.838,-0.645,1.168,0.027
12/17/2014 11:08:31.851,-0.402,1.707,-0.918
12/17/2014 11:08:31.864,0.156,1.262,-0.992
12/17/2014 11:08:31.877,0.328,1.977,0.035
12/17/2014 11:08:31.888,-0.242,3,-0.141
12/17/2014 11:08:31.901,-0.336,3,-0.184
12/17/2014 11:08:31.914,-0.191,2.668,-0.105
12/17/2014 11:08:31.927,0.02,2.129,-0.238
12/17/2014 11:08:31.938,0.18,1.723,-0.203
12/17/2014 11:08:31.951,0.191,1.324,0.008
12/17/2014 11:08:31.963,0.211,1.719,0.098
12/17/2014 11:08:31.976,0.738,2.387,0.242
12/17/2014 11:08:31.989,0.922,2.281,0.324
12/17/2014 11:08:32.002,1.043,2.031,0.297
12/17/2014 11:08:32.013,1.055,1.402,0.016
12/17/2014 11:08:32.026,1.035,0.707,-0.348
12/17/2014 11:08:32.039,0.832,-0.039,-0.613
12/17/2014 11:08:32.052,0.574,-0.891,-0.531
12/17/2014 11:08:32.063,0.398,-1.109,-0.246
12/17/2014 11:08:32.076,0.316,-0.91,-0.152
12/17/2014 11:08:32.088,0.188,-0.68,-0.043
12/17/2014 11:08:32.101,0.043,-0.719,-0.027
12/17/2014 11:08:32.114,-0.207,-0.727,-0.125
12/17/2014 11:08:32.127,-0.5,-0.434,-0.262
12/17/2014 11:08:32.138,-0.574,-0.211,-0.352
12/17/2014 11:08:32.151,-0.457,-0.121,-0.313
12/17/2014 11:08:32.164,-0.355,0.066,-0.121
12/17/2014 11:08:32.177,-0.063,0.367,0.016
12/17/2014 11:08:32.188,0.414,0.91,-0.492
12/17/2014 11:08:32.201,1.012,0.863,-0.781
12/17/2014 11:08:32.213,0.984,1.453,-0.703
12/17/2014 11:08:32.226,1.574,2.895,0.375
12/17/2014 11:08:32.239,2.355,3,1.023
12/17/2014 11:08:32.252,1.828,3,0.164
12/17/2014 11:08:32.263,0.727,3,-0.133
12/17/2014 11:08:32.276,0.016,3,0.184
12/17/2014 11:08:32.289,-0.367,2.797,0.488
12/17/2014 11:08:32.302,-0.582,2.539,0.48
12/17/2014 11:08:32.313,-0.73,2.504,0.332
12/17/2014 11:08:32.326,-0.445,1.953,0.43
12/17/2014 11:08:32.338,-0.066,1.379,0.402
12/17/2014 11:08:32.351,0.219,0.684,0.188
12/17/2014 11:08:32.364,0.414,-0.051,0.066
12/17/2014 11:08:32.377,0.332,-0.926,-0.559
12/17/2014 11:08:32.388,0.23,-1.414,-0.969
12/17/2014 11:08:32.401,0.238,-1.699,-0.566
12/17/2014 11:08:32.414,0.25,-1.117,-0.34
12/17/2014 11:08:32.427,0.191,-0.699,-0.172
12/17/2014 11:08:32.438,0.156,-0.5,-0.074
12/17/2014 11:08:32.451,0.305,-0.039,0.004
12/17/2014 11:08:32.463,0.602,0.082,-0.063
12/17/2014 11:08:32.476,0.473,0.176,-0.055
12/17/2014 11:08:32.489,0.457,0.352,0.043
12/17/2014 11:08:32.502,0.172,0.895,0.227
12/17/2014 11:08:32.513,-0.43,1.457,-0.461
12/17/2014 11:08:32.526,-0.145,1.855,-1.367
12/17/2014 11:08:32.539,0.648,1.68,-0.645
12/17/2014 11:08:32.552,0.238,2.383,0.18
12/17/2014 11:08:32.563,-0.309,2.609,-0.07
12/17/2014 11:08:32.576,-0.617,2.473,-0.531
12/17/2014 11:08:32.588,-0.633,2.277,-0.328
12/17/2014 11:08:32.601,-0.438,1.973,-0.16
12/17/2014 11:08:32.614,-0.242,1.523,-0.031
12/17/2014 11:08:32.627,-0.395,1.867,0.102
12/17/2014 11:08:32.638,-0.289,2.27,0.09
12/17/2014 11:08:32.651,0.066,2.629,0.238
12/17/2014 11:08:32.664,0.301,2.398,0.738
12/17/2014 11:08:32.677,0.297,1.648,0.668
12/17/2014 11:08:32.688,0.332,1.27,0.004
12/17/2014 11:08:32.701,0.574,0.449,-0.613
12/17/2014 11:08:32.713,0.871,-0.508,-0.762
12/17/2014 11:08:32.726,0.816,-1.121,-0.516
12/17/2014 11:08:32.739,0.555,-1.031,-0.148
12/17/2014 11:08:32.752,0.27,-0.859,-0.016
12/17/2014 11:08:32.763,0.086,-0.758,0.02
12/17/2014 11:08:32.776,-0.121,-0.691,0.023
12/17/2014 11:08:32.789,-0.328,-0.379,-0.059
12/17/2014 11:08:32.802,-0.441,0.035,-0.25
12/17/2014 11:08:32.813,-0.363,0.195,-0.391
12/17/2014 11:08:32.826,-0.176,0.082,-0.281
12/17/2014 11:08:32.838,-0.109,0.09,-0.121
12/17/2014 11:08:32.851,0.258,0.414,-0.023
12/17/2014 11:08:32.864,0.91,0.953,-0.402
12/17/2014 11:08:32.877,1.617,0.902,-0.898
12/17/2014 11:08:32.888,1.629,1.305,-0.793
12/17/2014 11:08:32.901,1.52,2.797,0.188
12/17/2014 11:08:32.914,1.445,3,0.75
12/17/2014 11:08:32.927,0.582,3,0.277
12/17/2014 11:08:32.938,0.098,3,0.289
12/17/2014 11:08:32.951,-0.152,2.84,0.457
12/17/2014 11:08:32.963,-0.578,2.473,0.453
12/17/2014 11:08:32.976,-0.867,2.422,0.277
12/17/2014 11:08:32.989,-0.527,2.039,0.176
12/17/2014 11:08:33.002,-0.313,1.039,-0.09
12/17/2014 11:08:33.013,0.395,0.961,0.145
12/17/2014 11:08:33.026,0.637,-0.063,-0.145
12/17/2014 11:08:33.039,0.582,-0.871,-0.746
12/17/2014 11:08:33.052,0.648,-1.199,-0.859
12/17/2014 11:08:33.063,0.625,-1.168,-0.531
12/17/2014 11:08:33.076,0.648,-1.031,-0.141
12/17/2014 11:08:33.088,0.563,-0.863,0.234
12/17/2014 11:08:33.101,0.395,-0.391,0.332
12/17/2014 11:08:33.114,0.352,-0.094,0.031
12/17/2014 11:08:33.127,0.18,0.07,-0.172
12/17/2014 11:08:33.138,0.023,0.105,-0.223
12/17/2014 11:08:33.151,0,0.16,-0.023
12/17/2014 11:08:33.164,-0.512,0.449,0.113
12/17/2014 11:08:33.177,-0.742,1.449,-0.898
12/17/2014 11:08:33.188,-0.285,1.652,-1.781
12/17/2014 11:08:33.201,0.43,2.668,-0.531
12/17/2014 11:08:33.213,0.102,3,0.629
12/17/2014 11:08:33.226,-0.164,3,0.379
12/17/2014 11:08:33.239,-0.457,1.992,-0.266
12/17/2014 11:08:33.252,-0.48,1.652,-0.402
12/17/2014 11:08:33.263,-0.336,1.27,-0.367
12/17/2014 11:08:33.276,-0.309,1.578,-0.172
12/17/2014 11:08:33.289,0.039,2.195,0.027
12/17/2014 11:08:33.302,0.617,2.551,0.258
12/17/2014 11:08:33.313,0.746,2.582,0.691
12/17/2014 11:08:33.326,0.516,1.871,0.605
12/17/2014 11:08:33.338,0.066,1.039,0.074
12/17/2014 11:08:33.351,0.078,0.512,-0.344
12/17/2014 11:08:33.364,0.367,-0.094,-0.496
12/17/2014 11:08:33.377,0.527,-0.906,-0.461
12/17/2014 11:08:33.388,0.516,-1.039,-0.297
12/17/2014 11:08:33.401,0.344,-0.691,-0.156
12/17/2014 11:08:33.414,0.203,-0.418,0.012
12/17/2014 11:08:33.427,0.191,-0.434,0.055
12/17/2014 11:08:33.438,0.07,-0.328,-0.02
12/17/2014 11:08:33.451,-0.09,-0.047,-0.133
12/17/2014 11:08:33.463,-0.168,0.039,-0.305
12/17/2014 11:08:33.476,-0.07,-0.172,-0.379
12/17/2014 11:08:33.489,0.012,-0.184,-0.324
12/17/2014 11:08:33.502,0.422,0.109,-0.324
12/17/2014 11:08:33.513,0.996,0.531,-0.871
12/17/2014 11:08:33.526,1.379,0.488,-1.137
12/17/2014 11:08:33.539,1.211,1.703,-0.941
12/17/2014 11:08:33.552,1.898,3,0.832
12/17/2014 11:08:33.563,2.313,3,1.129
12/17/2014 11:08:33.576,1.172,3,0.281
12/17/2014 11:08:33.588,0.316,3,0.266
12/17/2014 11:08:33.601,-0.086,2.574,0.316
12/17/2014 11:08:33.614,-0.43,2.16,0.043
12/17/2014 11:08:33.627,-0.965,2.09,-0.082
12/17/2014 11:08:33.638,-0.746,1.598,0.379
12/17/2014 11:08:33.651,-0.246,1.262,0.266
12/17/2014 11:08:33.664,0.16,0.625,0.07
12/17/2014 11:08:33.677,0.133,0.023,0.098
12/17/2014 11:08:33.688,0.223,-0.715,-0.387
12/17/2014 11:08:33.701,0.32,-1.434,-0.68
12/17/2014 11:08:33.713,0.43,-1.699,-0.578
12/17/2014 11:08:33.726,0.258,-1.348,-0.324
12/17/2014 11:08:33.739,0.211,-1,0.02
12/17/2014 11:08:33.752,0.164,-0.516,0.148
12/17/2014 11:08:33.763,0.367,-0.078,0.004
12/17/2014 11:08:33.776,0.387,0.082,-0.051
12/17/2014 11:08:33.789,0.375,0.246,-0.07
12/17/2014 11:08:33.802,0.332,0.426,-0.203
12/17/2014 11:08:33.813,0.156,0.473,0.137
12/17/2014 11:08:33.826,-0.379,1.137,0.117
12/17/2014 11:08:33.838,-0.664,1.93,-0.969
12/17/2014 11:08:33.851,-0.109,1.422,-1.605
12/17/2014 11:08:33.864,0.496,2,-0.148
12/17/2014 11:08:33.877,-0.059,3,0.465
12/17/2014 11:08:33.888,-0.273,3,0.168
12/17/2014 11:08:33.901,-0.512,2.336,-0.379
12/17/2014 11:08:33.914,-0.328,1.77,-0.473
12/17/2014 11:08:33.927,0.012,1.363,-0.43
12/17/2014 11:08:33.938,0.242,1.262,-0.117
12/17/2014 11:08:33.951,0.387,1.871,0.035
12/17/2014 11:08:33.963,0.938,2.184,-0.02
12/17/2014 11:08:33.976,0.855,2.715,0.453
12/17/2014 11:08:33.989,0.418,2.234,0.695
12/17/2014 11:08:34.002,-0.164,1.363,0.391
12/17/2014 11:08:34.013,-0.227,0.895,0.043
12/17/2014 11:08:34.026,0.145,0.176,-0.316
12/17/2014 11:08:34.039,0.297,-0.688,-0.5
12/17/2014 11:08:34.052,0.285,-1.164,-0.387
12/17/2014 11:08:34.063,0.289,-0.875,-0.215
12/17/2014 11:08:34.076,0.258,-0.461,0
12/17/2014 11:08:34.088,0.168,-0.406,0.098
12/17/2014 11:08:34.101,0.047,-0.496,0.008
12/17/2014 11:08:34.114,-0.051,-0.324,-0.191
12/17/2014 11:08:34.127,-0.121,-0.094,-0.426
12/17/2014 11:08:34.138,-0.051,-0.105,-0.504
12/17/2014 11:08:34.151,-0.031,-0.047,-0.348
12/17/2014 11:08:34.164,0.188,0.145,-0.172
12/17/2014 11:08:34.177,0.684,0.594,-0.605
12/17/2014 11:08:34.188,1.371,0.578,-0.813
12/17/2014 11:08:34.201,1.18,1.328,-0.766
12/17/2014 11:08:34.213,1.43,3,0.426
12/17/2014 11:08:34.226,2.195,3,1.289
12/17/2014 11:08:34.239,1.648,3,0.406
12/17/2014 11:08:34.252,0.508,3,0.121
12/17/2014 11:08:34.263,-0.105,3,0.449
12/17/2014 11:08:34.276,-0.398,2.516,0.398
12/17/2014 11:08:34.289,-0.621,2.168,0.098
12/17/2014 11:08:34.302,-0.723,2.035,-0.039
12/17/2014 11:08:34.313,-0.648,1.527,0.125
12/17/2014 11:08:34.326,0.176,0.973,0.324
12/17/2014 11:08:34.338,0.359,0.336,0.027
12/17/2014 11:08:34.351,0.313,-0.266,-0.113
12/17/2014 11:08:34.364,0.336,-0.918,-0.531
12/17/2014 11:08:34.377,0.191,-1.395,-0.707
12/17/2014 11:08:34.388,0.195,-1.555,-0.434
12/17/2014 11:08:34.401,0.188,-1.18,-0.121
12/17/2014 11:08:34.414,0.117,-0.773,0.09
12/17/2014 11:08:34.427,0.168,-0.289,0.078
12/17/2014 11:08:34.438,0.367,-0.086,-0.066
12/17/2014 11:08:34.451,0.434,-0.047,-0.113
12/17/2014 11:08:34.463,0.301,0.242,-0.09
12/17/2014 11:08:34.476,0.223,0.355,0.043
12/17/2014 11:08:34.489,-0.191,0.926,-0.027
12/17/2014 11:08:34.502,-0.301,1.941,-0.785
12/17/2014 11:08:34.513,-0.004,1.719,-1.395
12/17/2014 11:08:34.526,0.469,2.523,-0.223
12/17/2014 11:08:34.539,-0.379,3,0.438
12/17/2014 11:08:34.552,-0.508,2.992,0.023
12/17/2014 11:08:34.563,-0.465,2.273,-0.352
12/17/2014 11:08:34.576,-0.27,1.762,-0.379
12/17/2014 11:08:34.588,-0.074,1.336,-0.289
12/17/2014 11:08:34.601,-0.004,1.32,-0.125
12/17/2014 11:08:34.614,0.293,1.828,0
12/17/2014 11:08:34.627,0.867,2.313,0.199
12/17/2014 11:08:34.638,0.867,2.449,0.582
12/17/2014 11:08:34.651,0.566,1.723,0.488
12/17/2014 11:08:34.664,-0.023,1.043,0.105
12/17/2014 11:08:34.677,-0.031,0.484,-0.32
12/17/2014 11:08:34.688,0.184,-0.137,-0.609
12/17/2014 11:08:34.701,0.301,-0.98,-0.539
12/17/2014 11:08:34.713,0.309,-1.07,-0.301
12/17/2014 11:08:34.726,0.137,-0.672,-0.082
12/17/2014 11:08:34.739,0.121,-0.434,0.082
12/17/2014 11:08:34.752,0.098,-0.336,0.172
12/17/2014 11:08:34.763,-0.039,-0.207,0.047
12/17/2014 11:08:34.776,-0.129,0.016,-0.168
12/17/2014 11:08:34.789,-0.125,-0.004,-0.305
12/17/2014 11:08:34.802,0.008,-0.145,-0.27
12/17/2014 11:08:34.813,0.004,-0.082,-0.207
12/17/2014 11:08:34.826,0.402,0.266,-0.27
12/17/2014 11:08:34.838,0.973,0.527,-0.719
12/17/2014 11:08:34.851,1.191,0.531,-0.996
12/17/2014 11:08:34.864,0.781,1.781,-0.723
12/17/2014 11:08:34.877,1.617,3,0.805
12/17/2014 11:08:34.888,2.027,3,1.082
12/17/2014 11:08:34.901,1.008,3,0.426
12/17/2014 11:08:34.914,0.313,3,0.461
12/17/2014 11:08:34.927,-0.07,2.535,0.355
12/17/2014 11:08:34.938,-0.605,2.285,0.07
12/17/2014 11:08:34.951,-0.918,2.293,0.027
12/17/2014 11:08:34.963,-0.504,1.75,0.445
12/17/2014 11:08:34.976,-0.023,1.215,0.184
12/17/2014 11:08:34.989,0.242,0.738,0.363
12/17/2014 11:08:35.002,0.207,-0.398,-0.066
12/17/2014 11:08:35.013,0.156,-1.012,-0.777
12/17/2014 11:08:35.026,0.242,-1.289,-0.828
12/17/2014 11:08:35.039,0.246,-1.402,-0.449
12/17/2014 11:08:35.052,0.125,-1.203,-0.16
12/17/2014 11:08:35.063,0.121,-0.93,0.043
12/17/2014 11:08:35.076,0.203,-0.488,0.098
12/17/2014 11:08:35.088,0.453,-0.156,-0.055
12/17/2014 11:08:35.101,0.512,-0.004,-0.137
12/17/2014 11:08:35.114,0.492,0.305,-0.152
12/17/2014 11:08:35.127,0.523,0.414,-0.145
12/17/2014 11:08:35.138,0.301,0.598,0.188
12/17/2014 11:08:35.151,-0.211,1.348,-0.441
