------------ Data File Created By ActiGraph GT3X+ ActiLife v6.11.5 Firmware v2.2.1 date format M/d/yyyy at 80 Hz  Filter Normal -----------
Serial Number: CLE2B41120128
Start Time 11:08:00
Start Date 12/17/2014
Epoch Period (hh:mm:ss) 00:00:00
Download Time 11:08:59
Download Date 12/17/2014
Current Memory Address: 0
Current Battery Voltage: 4.19     Mode = 12
--------------------------------------------------
Timestamp,Accelerometer X,Accelerometer Y,Accelerometer Z
12/17/2014 11:08:00.002,-0.557,-1.897,-0.05
12/17/2014 11:08:00.013,-0.642,-2.05,-0.015
12/17/2014 11:08:00.026,-0.513,-2.279,0.15
12/17/2014 11:08:00.039,-0.196,-2.317,0.179
12/17/2014 11:08:00.052,0.179,-2.188,0.302
12/17/2014 11:08:00.063,0.293,-1.883,0.287
12/17/2014 11:08:00.076,0.578,-1.765,0.258
12/17/2014 11:08:00.088,0.698,-1.457,0.17
12/17/2014 11:08:00.101,0.504,-0.713,0.029
12/17/2014 11:08:00.114,0.284,-0.12,-0.123
12/17/2014 11:08:00.127,0.047,0.123,-0.044
12/17/2014 11:08:00.138,-0.15,0.176,0.208
12/17/2014 11:08:00.151,-0.331,0.419,0.267
12/17/2014 11:08:00.164,-0.264,0.367,0.155
12/17/2014 11:08:00.177,-0.208,0.226,0.079
12/17/2014 11:08:00.188,-0.293,0.182,0.044
12/17/2014 11:08:00.201,-0.355,0.202,0.041
12/17/2014 11:08:00.213,-0.372,0.235,-0.026
12/17/2014 11:08:00.226,-0.226,0.223,-0.094
12/17/2014 11:08:00.239,-0.018,0.194,-0.073
12/17/2014 11:08:00.252,-0.167,0.182,-0.003
12/17/2014 11:08:00.263,-0.695,-0.191,-0.044
12/17/2014 11:08:00.276,-0.959,-0.613,0.217
12/17/2014 11:08:00.289,-0.434,-0.889,0.522
12/17/2014 11:08:00.302,-0.46,-2.021,0.469
12/17/2014 11:08:00.313,-0.663,-3,0.543
12/17/2014 11:08:00.326,-0.827,-3,0.977
12/17/2014 11:08:00.338,-0.76,-3,0.777
12/17/2014 11:08:00.351,-0.264,-2.724,0.179
12/17/2014 11:08:00.364,0.173,-2.411,0.003
12/17/2014 11:08:00.377,0.419,-2.302,0.018
12/17/2014 11:08:00.388,0.361,-2.167,0.038
12/17/2014 11:08:00.401,0.402,-2.062,0.026
12/17/2014 11:08:00.414,0.346,-1.724,0.018
12/17/2014 11:08:00.427,0.056,-1.279,-0.065
12/17/2014 11:08:00.438,-0.226,-0.809,-0.012
12/17/2014 11:08:00.451,-0.343,-0.396,-0.032
12/17/2014 11:08:00.463,-0.411,-0.091,-0.094
12/17/2014 11:08:00.476,-0.37,0.065,-0.079
12/17/2014 11:08:00.489,-0.246,0.358,-0.059
12/17/2014 11:08:00.502,-0.223,0.924,0.12
12/17/2014 11:08:00.513,-0.191,1.155,0.129
12/17/2014 11:08:00.526,0.018,0.988,0.018
12/17/2014 11:08:00.539,0.114,0.499,0.009
12/17/2014 11:08:00.552,0.173,0.226,0.1
12/17/2014 11:08:00.563,0.062,0.144,0.129
12/17/2014 11:08:00.576,-0.123,0.015,0.07
12/17/2014 11:08:00.588,-0.293,-0.361,0.023
12/17/2014 11:08:00.601,-0.062,-0.604,0.012
12/17/2014 11:08:00.614,0.144,-0.672,0.012
12/17/2014 11:08:00.627,-0.056,-0.994,-0.147
12/17/2014 11:08:00.638,-0.46,-0.809,0.018
12/17/2014 11:08:00.651,-0.182,-1.196,-0.05
12/17/2014 11:08:00.664,0.399,-2.405,-0.349
12/17/2014 11:08:00.677,0.501,-2.848,0.22
12/17/2014 11:08:00.688,0.041,-2.54,0.44
12/17/2014 11:08:00.701,-0.352,-2.15,0.147
12/17/2014 11:08:00.713,-0.543,-1.897,-0.065
12/17/2014 11:08:00.726,-0.551,-1.745,-0.155
12/17/2014 11:08:00.739,-0.557,-1.956,-0.067
12/17/2014 11:08:00.752,-0.358,-2.419,0.261
12/17/2014 11:08:00.763,0,-2.575,0.411
12/17/2014 11:08:00.776,0.37,-2.258,0.469
12/17/2014 11:08:00.789,0.528,-1.827,0.279
12/17/2014 11:08:00.802,0.472,-1.226,0.202
12/17/2014 11:08:00.813,0.405,-0.812,0.082
12/17/2014 11:08:00.826,0.24,-0.387,-0.038
12/17/2014 11:08:00.838,0.059,-0.062,-0.009
12/17/2014 11:08:00.851,-0.12,0.194,0.085
12/17/2014 11:08:00.864,-0.117,0.299,0.082
12/17/2014 11:08:00.877,-0.15,0.375,0.038
12/17/2014 11:08:00.888,-0.296,0.416,0.032
12/17/2014 11:08:00.901,-0.396,0.361,0.073
12/17/2014 11:08:00.914,-0.387,0.443,0.067
12/17/2014 11:08:00.927,-0.246,0.434,0.032
12/17/2014 11:08:00.938,-0.029,0.311,0.038
12/17/2014 11:08:00.951,0.07,0.22,0.079
12/17/2014 11:08:00.963,-0.196,0.194,0.065
12/17/2014 11:08:00.976,-0.698,-0.132,0.056
12/17/2014 11:08:00.989,-1.021,-0.639,0.041
12/17/2014 11:08:01.002,-0.833,-0.974,0.364
12/17/2014 11:08:01.013,-0.308,-2.065,0.422
12/17/2014 11:08:01.026,-0.431,-3,0.396
12/17/2014 11:08:01.039,-0.683,-3,0.839
12/17/2014 11:08:01.052,-0.578,-3,0.61
12/17/2014 11:08:01.063,-0.161,-2.935,0.246
12/17/2014 11:08:01.076,0.396,-2.622,0.029
12/17/2014 11:08:01.088,0.513,-2.352,-0.109
12/17/2014 11:08:01.101,0.513,-2.161,-0.208
12/17/2014 11:08:01.114,0.534,-1.906,-0.088
12/17/2014 11:08:01.127,0.238,-1.619,-0.056
12/17/2014 11:08:01.138,-0.059,-1.226,-0.029
12/17/2014 11:08:01.151,-0.252,-0.795,-0.065
12/17/2014 11:08:01.164,-0.387,-0.372,-0.053
12/17/2014 11:08:01.177,-0.396,0.032,-0.114
12/17/2014 11:08:01.188,-0.276,0.158,-0.097
12/17/2014 11:08:01.201,-0.138,0.419,-0.082
12/17/2014 11:08:01.213,-0.059,0.76,0
12/17/2014 11:08:01.226,-0.138,1.144,0.135
12/17/2014 11:08:01.239,-0.032,0.833,0.032
12/17/2014 11:08:01.252,0.094,0.352,0.015
12/17/2014 11:08:01.263,0.079,0.317,0.1
12/17/2014 11:08:01.276,-0.076,0.372,0.109
12/17/2014 11:08:01.289,-0.194,-0.062,0.056
12/17/2014 11:08:01.302,-0.109,-0.416,0.065
12/17/2014 11:08:01.313,-0.041,-0.707,-0.012
12/17/2014 11:08:01.326,-0.37,-1.018,-0.109
12/17/2014 11:08:01.338,-0.686,-1.023,0.129
12/17/2014 11:08:01.351,-0.032,-1.718,0.097
12/17/2014 11:08:01.364,0.639,-2.457,-0.258
12/17/2014 11:08:01.377,0.61,-2.372,-0.041
12/17/2014 11:08:01.388,0.328,-2.235,0.082
12/17/2014 11:08:01.401,-0.12,-2.188,0.065
12/17/2014 11:08:01.414,-0.299,-2.012,0.015
12/17/2014 11:08:01.427,-0.413,-1.871,-0.147
12/17/2014 11:08:01.438,-0.598,-1.982,-0.1
12/17/2014 11:08:01.451,-0.516,-2.299,0.17
12/17/2014 11:08:01.463,-0.226,-2.264,0.314
12/17/2014 11:08:01.476,0.158,-2.085,0.264
12/17/2014 11:08:01.489,0.478,-1.9,0.252
12/17/2014 11:08:01.502,0.613,-1.496,0.246
12/17/2014 11:08:01.513,0.475,-1.009,0.176
12/17/2014 11:08:01.526,0.402,-0.504,0.032
12/17/2014 11:08:01.539,0.308,-0.182,-0.012
12/17/2014 11:08:01.552,0.035,0.223,0.065
12/17/2014 11:08:01.563,-0.261,0.484,0.167
12/17/2014 11:08:01.576,-0.284,0.522,0.147
12/17/2014 11:08:01.588,-0.317,0.49,0.038
12/17/2014 11:08:01.601,-0.317,0.484,0.026
12/17/2014 11:08:01.614,-0.302,0.513,0.015
12/17/2014 11:08:01.627,-0.246,0.402,0.029
12/17/2014 11:08:01.638,-0.173,0.267,0.059
12/17/2014 11:08:01.651,-0.152,0.223,0.065
12/17/2014 11:08:01.664,-0.39,0.202,0.032
12/17/2014 11:08:01.677,-0.818,-0.188,0.053
12/17/2014 11:08:01.688,-1.161,-0.716,0.141
12/17/2014 11:08:01.701,-0.672,-1.229,0.428
12/17/2014 11:08:01.713,-0.238,-2.331,0.405
12/17/2014 11:08:01.726,-0.487,-3,0.472
12/17/2014 11:08:01.739,-0.721,-3,0.842
12/17/2014 11:08:01.752,-0.625,-3,0.422
12/17/2014 11:08:01.763,-0.211,-2.695,0.082
12/17/2014 11:08:01.776,0.484,-2.372,-0.026
12/17/2014 11:08:01.789,0.754,-2.152,-0.135
12/17/2014 11:08:01.802,0.683,-2.035,-0.141
12/17/2014 11:08:01.813,0.657,-1.897,-0.023
12/17/2014 11:08:01.826,0.469,-1.751,0.018
12/17/2014 11:08:01.838,0.003,-1.413,-0.05
12/17/2014 11:08:01.851,-0.317,-0.93,-0.1
12/17/2014 11:08:01.864,-0.469,-0.584,-0.147
12/17/2014 11:08:01.877,-0.551,-0.147,-0.111
12/17/2014 11:08:01.888,-0.413,0.056,-0.111
12/17/2014 11:08:01.901,-0.196,0.255,-0.094
12/17/2014 11:08:01.914,-0.05,0.478,0
12/17/2014 11:08:01.927,-0.091,0.891,0.12
12/17/2014 11:08:01.938,-0.041,0.95,0.12
12/17/2014 11:08:01.951,0.05,0.557,0
12/17/2014 11:08:01.963,0.12,0.284,0.012
12/17/2014 11:08:01.976,-0.015,0.396,0.065
12/17/2014 11:08:01.989,-0.129,0.299,0.067
12/17/2014 11:08:02.002,-0.117,-0.191,-0.003
12/17/2014 11:08:02.013,0.032,-0.575,0.009
12/17/2014 11:08:02.026,-0.12,-0.938,-0.026
12/17/2014 11:08:02.039,-0.557,-0.959,-0.012
12/17/2014 11:08:02.052,-0.252,-1.287,0.026
12/17/2014 11:08:02.063,0.551,-2.065,-0.384
12/17/2014 11:08:02.076,0.944,-2.724,-0.249
12/17/2014 11:08:02.088,0.648,-2.628,0.299
12/17/2014 11:08:02.101,0.003,-2.293,0.405
12/17/2014 11:08:02.114,-0.34,-1.959,0.264
12/17/2014 11:08:02.127,-0.478,-1.674,-0.029
12/17/2014 11:08:02.138,-0.642,-1.821,-0.085
12/17/2014 11:08:02.151,-0.622,-2.117,0.135
12/17/2014 11:08:02.164,-0.402,-2.22,0.261
12/17/2014 11:08:02.177,-0.021,-2.302,0.323
12/17/2014 11:08:02.188,0.455,-2.255,0.413
12/17/2014 11:08:02.201,0.49,-1.71,0.302
12/17/2014 11:08:02.213,0.484,-1.147,0.17
12/17/2014 11:08:02.226,0.528,-0.619,0.009
12/17/2014 11:08:02.239,0.287,-0.114,-0.044
12/17/2014 11:08:02.252,0.035,0.15,0.07
12/17/2014 11:08:02.263,-0.208,0.287,0.249
12/17/2014 11:08:02.276,-0.255,0.37,0.238
12/17/2014 11:08:02.289,-0.375,0.434,0.029
12/17/2014 11:08:02.302,-0.387,0.328,0.012
12/17/2014 11:08:02.313,-0.355,0.372,0.041
12/17/2014 11:08:02.326,-0.223,0.367,-0.015
12/17/2014 11:08:02.338,-0.062,0.284,-0.015
12/17/2014 11:08:02.351,0.006,0.188,0.009
12/17/2014 11:08:02.364,-0.147,0.164,0.018
12/17/2014 11:08:02.377,-0.633,-0.047,0.05
12/17/2014 11:08:02.388,-1.053,-0.534,0.044
12/17/2014 11:08:02.401,-0.915,-1.003,0.46
12/17/2014 11:08:02.414,-0.246,-1.739,0.543
12/17/2014 11:08:02.427,-0.39,-3,0.358
12/17/2014 11:08:02.438,-0.818,-3,0.871
12/17/2014 11:08:02.451,-0.894,-3,0.727
12/17/2014 11:08:02.463,-0.49,-2.771,0.17
12/17/2014 11:08:02.476,0.147,-2.469,0.018
12/17/2014 11:08:02.489,0.463,-2.302,-0.07
12/17/2014 11:08:02.502,0.551,-2.085,-0.182
12/17/2014 11:08:02.513,0.657,-1.944,-0.182
12/17/2014 11:08:02.526,0.628,-1.762,-0.126
12/17/2014 11:08:02.539,0.27,-1.393,-0.088
12/17/2014 11:08:02.552,-0.032,-0.877,-0.056
12/17/2014 11:08:02.563,-0.287,-0.443,-0.097
12/17/2014 11:08:02.576,-0.416,-0.106,-0.185
12/17/2014 11:08:02.588,-0.39,0.103,-0.111
12/17/2014 11:08:02.601,-0.261,0.284,-0.073
12/17/2014 11:08:02.614,-0.267,0.754,0.073
12/17/2014 11:08:02.627,-0.252,1.032,0.111
12/17/2014 11:08:02.638,-0.161,0.982,0.026
12/17/2014 11:08:02.651,-0.094,0.449,0.029
12/17/2014 11:08:02.664,-0.047,0.317,0.1
12/17/2014 11:08:02.677,-0.085,0.49,0.123
12/17/2014 11:08:02.688,-0.205,0.106,0.191
12/17/2014 11:08:02.701,-0.176,-0.537,0.191
12/17/2014 11:08:02.713,0.138,-0.639,0.211
12/17/2014 11:08:02.726,-0.018,-0.809,-0.065
12/17/2014 11:08:02.739,-0.328,-0.707,-0.032
12/17/2014 11:08:02.752,-0.328,-0.798,0.15
12/17/2014 11:08:02.763,0.425,-1.959,-0.059
12/17/2014 11:08:02.776,0.308,-2.548,-0.138
12/17/2014 11:08:02.789,0.088,-2.384,0.155
12/17/2014 11:08:02.802,0.062,-2.326,-0.015
12/17/2014 11:08:02.813,-0.164,-2.226,-0.164
12/17/2014 11:08:02.826,-0.24,-2.056,-0.205
12/17/2014 11:08:02.838,-0.34,-1.95,-0.317
12/17/2014 11:08:02.851,-0.279,-2.065,-0.22
12/17/2014 11:08:02.864,-0.035,-2.287,0
12/17/2014 11:08:02.877,0.346,-2.413,0.059
12/17/2014 11:08:02.888,0.613,-2.252,0.161
12/17/2014 11:08:02.901,0.61,-1.959,0.249
12/17/2014 11:08:02.914,0.475,-1.361,0.29
12/17/2014 11:08:02.927,0.282,-0.786,0.129
12/17/2014 11:08:02.938,0.062,-0.314,-0.023
12/17/2014 11:08:02.951,-0.205,0.029,0.085
12/17/2014 11:08:02.963,-0.361,0.22,0.317
12/17/2014 11:08:02.976,-0.282,0.34,0.314
12/17/2014 11:08:02.989,-0.179,0.358,0.152
12/17/2014 11:08:03.002,-0.217,0.387,0.085
12/17/2014 11:08:03.013,-0.238,0.443,0.085
12/17/2014 11:08:03.026,-0.188,0.569,0.032
12/17/2014 11:08:03.039,-0.07,0.563,-0.026
12/17/2014 11:08:03.052,0.003,0.411,-0.009
12/17/2014 11:08:03.063,-0.085,0.255,0.073
12/17/2014 11:08:03.076,-0.475,-0.003,0.15
12/17/2014 11:08:03.088,-0.856,-0.499,0.232
12/17/2014 11:08:03.101,-0.991,-0.804,0.452
12/17/2014 11:08:03.114,-0.619,-1.677,0.51
12/17/2014 11:08:03.127,-0.716,-3,0.425
12/17/2014 11:08:03.138,-0.965,-3,0.938
12/17/2014 11:08:03.151,-0.809,-3,0.672
12/17/2014 11:08:03.164,-0.519,-2.669,0.106
12/17/2014 11:08:03.177,0.026,-2.484,-0.012
12/17/2014 11:08:03.188,0.413,-2.326,-0.079
12/17/2014 11:08:03.201,0.581,-2.196,-0.194
12/17/2014 11:08:03.213,0.818,-2.029,-0.17
12/17/2014 11:08:03.226,0.739,-1.868,-0.161
12/17/2014 11:08:03.239,0.455,-1.496,-0.073
12/17/2014 11:08:03.252,0.158,-0.842,-0.129
12/17/2014 11:08:03.263,-0.041,-0.226,-0.264
12/17/2014 11:08:03.276,-0.167,0.196,-0.399
12/17/2014 11:08:03.289,-0.179,0.264,-0.334
12/17/2014 11:08:03.302,-0.326,0.519,-0.176
12/17/2014 11:08:03.313,-0.469,1.023,0.038
12/17/2014 11:08:03.326,-0.434,1.053,0.147
12/17/2014 11:08:03.338,-0.249,0.716,0.079
12/17/2014 11:08:03.351,0.018,0.293,0.097
12/17/2014 11:08:03.364,0.065,0.428,0.114
12/17/2014 11:08:03.377,-0.188,0.449,0.053
12/17/2014 11:08:03.388,-0.24,-0.249,0.026
12/17/2014 11:08:03.401,0.015,-0.534,0.164
12/17/2014 11:08:03.414,0.085,-0.639,0.097
12/17/2014 11:08:03.427,-0.205,-0.812,-0.012
12/17/2014 11:08:03.438,-0.484,-0.419,0.135
12/17/2014 11:08:03.451,0.029,-1.141,0.018
12/17/2014 11:08:03.463,0.343,-2.029,-0.364
12/17/2014 11:08:03.476,0.308,-2.279,-0.179
12/17/2014 11:08:03.489,0.522,-2.619,0.012
12/17/2014 11:08:03.502,0.279,-2.798,0.155
12/17/2014 11:08:03.513,-0.047,-2.501,0.179
12/17/2014 11:08:03.526,-0.287,-2.238,0.038
12/17/2014 11:08:03.539,-0.463,-2.191,0.07
12/17/2014 11:08:03.552,-0.293,-2.235,0.205
12/17/2014 11:08:03.563,-0.018,-2.44,0.323
12/17/2014 11:08:03.576,0.138,-2.161,0.314
12/17/2014 11:08:03.588,-0.062,-1.628,0.293
12/17/2014 11:08:03.601,-0.15,-1.12,0.328
12/17/2014 11:08:03.614,-0.1,-0.774,0.246
12/17/2014 11:08:03.627,-0.106,-0.501,0.196
12/17/2014 11:08:03.638,-0.129,-0.191,0.246
12/17/2014 11:08:03.651,-0.12,0.208,0.22
12/17/2014 11:08:03.664,-0.088,0.361,0.191
12/17/2014 11:08:03.677,-0.109,0.46,0.238
12/17/2014 11:08:03.688,-0.282,0.478,0.211
12/17/2014 11:08:03.701,-0.425,0.405,0.182
12/17/2014 11:08:03.713,-0.484,0.372,0.191
12/17/2014 11:08:03.726,-0.405,0.405,0.15
12/17/2014 11:08:03.739,-0.205,0.375,0.147
12/17/2014 11:08:03.752,-0.085,0.311,0.194
12/17/2014 11:08:03.763,-0.308,0.299,0.211
12/17/2014 11:08:03.776,-0.865,-0.029,0.202
12/17/2014 11:08:03.789,-1.308,-0.504,0.208
12/17/2014 11:08:03.802,-1.141,-0.85,0.648
12/17/2014 11:08:03.813,-0.842,-1.762,0.657
12/17/2014 11:08:03.826,-0.865,-3,0.446
12/17/2014 11:08:03.838,-0.613,-3,0.865
12/17/2014 11:08:03.851,-0.22,-3,0.809
12/17/2014 11:08:03.864,0.235,-3,0.328
12/17/2014 11:08:03.877,0.73,-2.745,-0.023
12/17/2014 11:08:03.888,0.789,-2.501,-0.223
12/17/2014 11:08:03.901,0.891,-2.323,-0.331
12/17/2014 11:08:03.914,0.918,-1.971,-0.147
12/17/2014 11:08:03.927,0.61,-1.513,0.038
12/17/2014 11:08:03.938,0.22,-1.079,-0.032
12/17/2014 11:08:03.951,-0.044,-0.745,-0.176
12/17/2014 11:08:03.963,-0.188,-0.381,-0.208
12/17/2014 11:08:03.976,-0.24,-0.07,-0.147
12/17/2014 11:08:03.989,-0.34,0.226,-0.179
12/17/2014 11:08:04.002,-0.504,0.78,-0.097
12/17/2014 11:08:04.013,-0.619,1.258,0.138
12/17/2014 11:08:04.026,-0.396,0.962,0.079
12/17/2014 11:08:04.039,-0.202,0.563,0.082
12/17/2014 11:08:04.052,-0.076,0.399,0.147
12/17/2014 11:08:04.063,-0.044,0.446,0.202
12/17/2014 11:08:04.076,-0.217,0.346,0.023
12/17/2014 11:08:04.088,-0.205,-0.188,0.026
12/17/2014 11:08:04.101,-0.021,-0.396,0.059
12/17/2014 11:08:04.114,-0.05,-0.625,0.088
12/17/2014 11:08:04.127,-0.293,-0.824,0.161
12/17/2014 11:08:04.138,-0.537,-0.56,0.208
12/17/2014 11:08:04.151,-0.032,-1.047,-0.094
12/17/2014 11:08:04.164,0.337,-2.006,-0.361
12/17/2014 11:08:04.177,0.534,-2.173,-0.287
12/17/2014 11:08:04.188,0.848,-2.513,-0.073
12/17/2014 11:08:04.201,0.516,-2.765,0.232
12/17/2014 11:08:04.213,0.264,-2.701,0.443
12/17/2014 11:08:04.226,-0.035,-2.449,0.293
12/17/2014 11:08:04.239,-0.164,-2.311,0.196
12/17/2014 11:08:04.252,-0.223,-2.138,0.358
12/17/2014 11:08:04.263,-0.147,-2.188,0.469
12/17/2014 11:08:04.276,-0.065,-1.906,0.387
12/17/2014 11:08:04.289,-0.167,-1.499,0.381
12/17/2014 11:08:04.302,-0.123,-1.214,0.399
12/17/2014 11:08:04.313,-0.041,-0.818,0.238
12/17/2014 11:08:04.326,-0.012,-0.499,0.196
12/17/2014 11:08:04.338,-0.018,-0.161,0.261
12/17/2014 11:08:04.351,-0.003,0.114,0.287
12/17/2014 11:08:04.364,-0.041,0.308,0.361
12/17/2014 11:08:04.377,-0.179,0.455,0.375
12/17/2014 11:08:04.388,-0.367,0.446,0.284
12/17/2014 11:08:04.401,-0.534,0.352,0.249
12/17/2014 11:08:04.414,-0.531,0.396,0.267
12/17/2014 11:08:04.427,-0.372,0.469,0.196
12/17/2014 11:08:04.438,-0.279,0.372,0.123
12/17/2014 11:08:04.451,-0.267,0.264,0.17
12/17/2014 11:08:04.463,-0.663,0.152,0.331
12/17/2014 11:08:04.476,-1.226,-0.463,0.381
12/17/2014 11:08:04.489,-1.531,-0.798,0.478
12/17/2014 11:08:04.502,-1.123,-1.689,0.748
12/17/2014 11:08:04.513,-0.809,-2.991,0.481
12/17/2014 11:08:04.526,-0.569,-3,0.736
12/17/2014 11:08:04.539,-0.109,-3,0.815
12/17/2014 11:08:04.552,-0.041,-3,0.446
12/17/2014 11:08:04.563,0.434,-2.695,0.088
12/17/2014 11:08:04.576,0.804,-2.457,-0.109
12/17/2014 11:08:04.588,0.95,-1.968,-0.323
12/17/2014 11:08:04.601,1.018,-1.572,-0.29
12/17/2014 11:08:04.614,0.736,-1.408,-0.152
12/17/2014 11:08:04.627,0.399,-1.126,-0.135
12/17/2014 11:08:04.638,0.1,-0.765,-0.176
12/17/2014 11:08:04.651,-0.106,-0.238,-0.258
12/17/2014 11:08:04.664,-0.188,0.132,-0.267
12/17/2014 11:08:04.677,-0.469,0.522,-0.343
12/17/2014 11:08:04.688,-0.455,0.871,-0.155
12/17/2014 11:08:04.701,-0.361,1.191,0.032
12/17/2014 11:08:04.713,-0.147,1.021,-0.106
12/17/2014 11:08:04.726,0.062,0.727,-0.026
12/17/2014 11:08:04.739,0.035,0.581,0.097
12/17/2014 11:08:04.752,0.073,0.314,0.223
12/17/2014 11:08:04.763,-0.205,0.062,0.009
12/17/2014 11:08:04.776,-0.079,-0.07,0
12/17/2014 11:08:04.789,-0.132,-0.619,0.05
12/17/2014 11:08:04.802,-0.405,-1.094,0.129
12/17/2014 11:08:04.813,-0.824,-0.95,0.34
12/17/2014 11:08:04.826,-0.367,-1.469,0.323
12/17/2014 11:08:04.838,0.44,-2.226,-0.141
12/17/2014 11:08:04.851,0.46,-2.375,-0.317
12/17/2014 11:08:04.864,0.765,-2.531,-0.088
12/17/2014 11:08:04.877,0.276,-2.628,0.15
12/17/2014 11:08:04.888,-0.018,-2.431,0.185
12/17/2014 11:08:04.901,-0.205,-2.106,-0.038
12/17/2014 11:08:04.914,-0.39,-1.974,-0.085
12/17/2014 11:08:04.927,-0.44,-1.974,0.135
12/17/2014 11:08:04.938,-0.287,-2.029,0.372
12/17/2014 11:08:04.951,-0.255,-2.059,0.411
12/17/2014 11:08:04.963,-0.15,-1.956,0.499
12/17/2014 11:08:04.976,-0.041,-1.566,0.457
12/17/2014 11:08:04.989,0.012,-1.006,0.328
12/17/2014 11:08:05.002,-0.015,-0.478,0.138
12/17/2014 11:08:05.013,0.135,-0.235,0.067
12/17/2014 11:08:05.026,0.135,0.117,0.138
12/17/2014 11:08:05.039,0.07,0.352,0.17
12/17/2014 11:08:05.052,-0.006,0.49,0.141
12/17/2014 11:08:05.063,-0.088,0.516,0.12
12/17/2014 11:08:05.076,-0.22,0.399,0.12
12/17/2014 11:08:05.088,-0.276,0.343,0.129
12/17/2014 11:08:05.101,-0.226,0.352,0.138
12/17/2014 11:08:05.114,-0.147,0.328,0.079
12/17/2014 11:08:05.127,-0.041,0.282,0.106
12/17/2014 11:08:05.138,-0.158,0.255,0.22
12/17/2014 11:08:05.151,-0.739,0.035,0.238
12/17/2014 11:08:05.164,-1.243,-0.563,0.364
12/17/2014 11:08:05.177,-1.419,-0.889,0.61
12/17/2014 11:08:05.188,-1.003,-1.71,0.771
12/17/2014 11:08:05.201,-0.953,-3,0.798
12/17/2014 11:08:05.213,-0.979,-3,1.182
12/17/2014 11:08:05.226,-0.499,-3,0.886
12/17/2014 11:08:05.239,-0.12,-2.947,0.279
12/17/2014 11:08:05.252,0.323,-2.411,-0.003
12/17/2014 11:08:05.263,0.472,-2.205,-0.094
12/17/2014 11:08:05.276,0.666,-2.047,-0.147
12/17/2014 11:08:05.289,0.845,-1.777,-0.17
12/17/2014 11:08:05.302,0.745,-1.613,-0.176
12/17/2014 11:08:05.313,0.343,-1.199,-0.094
12/17/2014 11:08:05.326,0.021,-0.625,-0.155
12/17/2014 11:08:05.338,-0.147,-0.085,-0.328
12/17/2014 11:08:05.351,-0.355,0.073,-0.305
12/17/2014 11:08:05.364,-0.384,0.537,-0.185
12/17/2014 11:08:05.377,-0.419,0.859,0.056
12/17/2014 11:08:05.388,-0.566,1.352,0.015
12/17/2014 11:08:05.401,-0.255,0.944,0.023
12/17/2014 11:08:05.414,-0.015,0.551,0
12/17/2014 11:08:05.427,0.059,0.205,-0.018
12/17/2014 11:08:05.438,0.182,-0.073,0.097
12/17/2014 11:08:05.451,0.05,0.202,0.097
12/17/2014 11:08:05.463,-0.035,0.088,-0.082
12/17/2014 11:08:05.476,0.138,-0.343,-0.041
12/17/2014 11:08:05.489,0.091,-0.669,-0.059
12/17/2014 11:08:05.502,-0.012,-0.654,0.038
12/17/2014 11:08:05.513,-0.648,-0.633,0.023
12/17/2014 11:08:05.526,-0.044,-1.317,-0.056
12/17/2014 11:08:05.539,0.352,-2.208,-0.44
12/17/2014 11:08:05.552,0.619,-2.856,-0.138
12/17/2014 11:08:05.563,0.61,-3,0.411
12/17/2014 11:08:05.576,0.062,-2.677,0.399
12/17/2014 11:08:05.588,-0.37,-2.258,0.129
12/17/2014 11:08:05.601,-0.613,-2.062,-0.123
12/17/2014 11:08:05.614,-0.613,-1.921,-0.026
12/17/2014 11:08:05.627,-0.642,-2.12,0.226
12/17/2014 11:08:05.638,-0.358,-2.419,0.416
12/17/2014 11:08:05.651,-0.144,-2.343,0.493
12/17/2014 11:08:05.664,-0.021,-1.774,0.44
12/17/2014 11:08:05.677,-0.255,-0.988,0.372
12/17/2014 11:08:05.688,-0.308,-0.528,0.287
12/17/2014 11:08:05.701,-0.106,-0.179,0.323
12/17/2014 11:08:05.713,-0.129,0.173,0.455
12/17/2014 11:08:05.726,-0.109,0.293,0.452
12/17/2014 11:08:05.739,-0.117,0.302,0.411
12/17/2014 11:08:05.752,-0.176,0.326,0.284
12/17/2014 11:08:05.763,-0.293,0.472,0.135
12/17/2014 11:08:05.776,-0.361,0.61,0.044
12/17/2014 11:08:05.789,-0.284,0.657,-0.003
12/17/2014 11:08:05.802,-0.202,0.543,-0.012
12/17/2014 11:08:05.813,-0.114,0.457,0.07
12/17/2014 11:08:05.826,-0.114,0.331,0.138
12/17/2014 11:08:05.838,-0.513,0.103,0.147
12/17/2014 11:08:05.851,-0.909,-0.628,0.273
12/17/2014 11:08:05.864,-1.1,-0.965,0.431
12/17/2014 11:08:05.877,-0.88,-1.739,0.501
12/17/2014 11:08:05.888,-0.988,-3,0.411
12/17/2014 11:08:05.901,-0.727,-3,0.891
12/17/2014 11:08:05.914,-0.188,-3,0.625
12/17/2014 11:08:05.927,0.179,-2.962,0.284
12/17/2014 11:08:05.938,0.765,-2.713,-0.056
12/17/2014 11:08:05.951,0.921,-2.519,-0.217
12/17/2014 11:08:05.963,1.062,-2.164,-0.32
12/17/2014 11:08:05.976,0.965,-1.798,-0.182
12/17/2014 11:08:05.989,0.463,-1.443,-0.129
12/17/2014 11:08:06.002,-0.047,-0.839,-0.053
12/17/2014 11:08:06.013,-0.343,-0.314,-0.147
12/17/2014 11:08:06.026,-0.463,-0.035,-0.252
12/17/2014 11:08:06.039,-0.557,0.144,-0.293
12/17/2014 11:08:06.052,-0.513,0.595,-0.015
12/17/2014 11:08:06.063,-0.557,1.129,0.12
12/17/2014 11:08:06.076,-0.428,1.264,0.082
12/17/2014 11:08:06.088,-0.158,0.745,0.079
12/17/2014 11:08:06.101,-0.091,0.202,0.073
12/17/2014 11:08:06.114,0.132,0.079,0.12
12/17/2014 11:08:06.127,0.065,0.499,0.15
12/17/2014 11:08:06.138,-0.15,0.021,0.015
12/17/2014 11:08:06.151,0.041,-0.607,0.059
12/17/2014 11:08:06.164,0.15,-0.707,0.15
12/17/2014 11:08:06.177,-0.15,-0.724,-0.056
12/17/2014 11:08:06.188,-0.434,-0.551,0.05
12/17/2014 11:08:06.201,-0.117,-1.109,-0.097
12/17/2014 11:08:06.213,0.235,-1.839,-0.431
12/17/2014 11:08:06.226,0.279,-1.95,-0.472
12/17/2014 11:08:06.239,0.619,-2.501,-0.299
12/17/2014 11:08:06.252,0.419,-2.809,0.202
12/17/2014 11:08:06.263,-0.029,-2.563,0.34
12/17/2014 11:08:06.276,-0.358,-2.176,0.059
12/17/2014 11:08:06.289,-0.613,-2.047,-0.032
12/17/2014 11:08:06.302,-0.516,-2.079,0.138
12/17/2014 11:08:06.313,-0.293,-2.062,0.217
12/17/2014 11:08:06.326,-0.176,-2.164,0.323
12/17/2014 11:08:06.338,0.191,-2.161,0.484
12/17/2014 11:08:06.351,0.328,-1.554,0.46
12/17/2014 11:08:06.364,0.284,-0.974,0.302
12/17/2014 11:08:06.377,-0.079,-0.302,0.152
12/17/2014 11:08:06.388,-0.235,-0.059,0.279
12/17/2014 11:08:06.401,-0.255,0.117,0.437
12/17/2014 11:08:06.414,-0.15,0.314,0.402
12/17/2014 11:08:06.427,-0.255,0.455,0.381
12/17/2014 11:08:06.438,-0.528,0.499,0.361
12/17/2014 11:08:06.451,-0.713,0.457,0.328
12/17/2014 11:08:06.463,-0.669,0.522,0.293
12/17/2014 11:08:06.476,-0.504,0.557,0.176
12/17/2014 11:08:06.489,-0.302,0.419,0.129
12/17/2014 11:08:06.502,-0.293,0.314,0.238
12/17/2014 11:08:06.513,-0.519,0.255,0.32
12/17/2014 11:08:06.526,-1.032,-0.176,0.375
12/17/2014 11:08:06.539,-1.428,-0.598,0.358
12/17/2014 11:08:06.552,-1.191,-1.111,0.704
12/17/2014 11:08:06.563,-0.721,-2.721,0.543
12/17/2014 11:08:06.576,-0.651,-3,0.798
12/17/2014 11:08:06.588,-0.144,-3,0.727
12/17/2014 11:08:06.601,0.103,-3,0.343
12/17/2014 11:08:06.614,0.724,-2.85,0.126
12/17/2014 11:08:06.627,0.85,-2.628,0.015
12/17/2014 11:08:06.638,1.053,-2.264,-0.299
12/17/2014 11:08:06.651,1.138,-1.809,-0.349
12/17/2014 11:08:06.664,0.889,-1.457,-0.235
12/17/2014 11:08:06.677,0.317,-0.959,-0.106
12/17/2014 11:08:06.688,-0.059,-0.622,-0.114
12/17/2014 11:08:06.701,-0.255,-0.352,-0.246
12/17/2014 11:08:06.713,-0.37,-0.065,-0.323
12/17/2014 11:08:06.726,-0.331,0.367,-0.258
12/17/2014 11:08:06.739,-0.372,0.865,0.073
12/17/2014 11:08:06.752,-0.519,1.235,0.05
12/17/2014 11:08:06.763,-0.326,1.012,0.041
12/17/2014 11:08:06.776,-0.147,0.384,0.026
12/17/2014 11:08:06.789,-0.035,0.012,0.065
12/17/2014 11:08:06.802,-0.026,0.208,0.082
12/17/2014 11:08:06.813,-0.179,0.372,0.067
12/17/2014 11:08:06.826,-0.152,-0.109,-0.009
12/17/2014 11:08:06.838,0.065,-0.478,0.085
12/17/2014 11:08:06.851,0.24,-0.528,0.059
12/17/2014 11:08:06.864,0.044,-0.299,-0.044
12/17/2014 11:08:06.877,-0.739,-0.469,-0.079
12/17/2014 11:08:06.888,-0.44,-1.191,-0.179
12/17/2014 11:08:06.901,-0.24,-2.026,-0.358
12/17/2014 11:08:06.914,0.249,-2.894,-0.182
12/17/2014 11:08:06.927,0.721,-3,0.437
12/17/2014 11:08:06.938,0.381,-2.859,0.364
12/17/2014 11:08:06.951,0.167,-2.299,-0.003
12/17/2014 11:08:06.963,-0.138,-1.974,-0.235
12/17/2014 11:08:06.976,-0.196,-1.789,-0.111
12/17/2014 11:08:06.989,-0.232,-1.985,0.164
12/17/2014 11:08:07.002,-0.173,-2.405,0.457
12/17/2014 11:08:07.013,0.056,-2.311,0.569
12/17/2014 11:08:07.026,0.205,-1.639,0.51
12/17/2014 11:08:07.039,-0.114,-0.848,0.396
12/17/2014 11:08:07.052,-0.296,-0.446,0.349
12/17/2014 11:08:07.063,-0.232,-0.147,0.361
12/17/2014 11:08:07.076,-0.194,0.188,0.428
12/17/2014 11:08:07.088,-0.182,0.399,0.32
12/17/2014 11:08:07.101,-0.135,0.46,0.217
12/17/2014 11:08:07.114,-0.188,0.472,0.185
12/17/2014 11:08:07.127,-0.308,0.493,0.123
12/17/2014 11:08:07.138,-0.358,0.504,0.05
12/17/2014 11:08:07.151,-0.311,0.434,0.012
12/17/2014 11:08:07.164,-0.282,0.314,0.038
12/17/2014 11:08:07.177,-0.24,0.152,0.155
12/17/2014 11:08:07.188,-0.326,0.044,0.302
12/17/2014 11:08:07.201,-0.886,-0.223,0.402
12/17/2014 11:08:07.213,-1.413,-0.874,0.384
12/17/2014 11:08:07.226,-1.258,-1.085,0.61
12/17/2014 11:08:07.239,-0.944,-2.513,0.771
12/17/2014 11:08:07.252,-0.979,-3,0.95
12/17/2014 11:08:07.263,-0.622,-3,0.971
12/17/2014 11:08:07.276,-0.372,-3,0.578
12/17/2014 11:08:07.289,0.114,-2.736,0.161
12/17/2014 11:08:07.302,0.551,-2.493,-0.023
12/17/2014 11:08:07.313,0.73,-2.246,-0.202
12/17/2014 11:08:07.326,0.933,-2.018,-0.126
12/17/2014 11:08:07.338,0.859,-1.633,-0.041
12/17/2014 11:08:07.351,0.425,-1.284,0.029
12/17/2014 11:08:07.364,-0.018,-0.73,-0.106
12/17/2014 11:08:07.377,-0.144,-0.217,-0.238
12/17/2014 11:08:07.388,-0.308,0.144,-0.399
12/17/2014 11:08:07.401,-0.384,0.639,-0.299
12/17/2014 11:08:07.414,-0.381,1.076,-0.023
12/17/2014 11:08:07.427,-0.381,1.455,-0.029
12/17/2014 11:08:07.438,-0.018,0.906,-0.073
12/17/2014 11:08:07.451,0.094,0.513,0.012
12/17/2014 11:08:07.463,0.235,0.499,0.249
12/17/2014 11:08:07.476,0.085,0.413,0.185
12/17/2014 11:08:07.489,-0.308,0.056,0.056
12/17/2014 11:08:07.502,-0.361,-0.531,0.023
12/17/2014 11:08:07.513,0.006,-0.639,0.152
12/17/2014 11:08:07.526,0.05,-0.654,0.026
12/17/2014 11:08:07.539,-0.158,-0.804,0.026
12/17/2014 11:08:07.552,-0.724,-0.537,0.059
12/17/2014 11:08:07.563,-0.135,-1.188,0.082
12/17/2014 11:08:07.576,0.399,-2.167,-0.381
12/17/2014 11:08:07.588,0.487,-2.419,-0.276
12/17/2014 11:08:07.601,0.683,-2.713,-0.029
12/17/2014 11:08:07.614,0.346,-2.686,0.114
12/17/2014 11:08:07.627,-0.012,-2.501,0.208
12/17/2014 11:08:07.638,-0.317,-2.188,0.114
12/17/2014 11:08:07.651,-0.493,-1.883,0.018
12/17/2014 11:08:07.664,-0.56,-2.103,0.211
12/17/2014 11:08:07.677,-0.399,-2.358,0.399
12/17/2014 11:08:07.688,-0.194,-2.109,0.331
12/17/2014 11:08:07.701,-0.144,-1.584,0.293
12/17/2014 11:08:07.713,-0.056,-1.132,0.287
12/17/2014 11:08:07.726,-0.135,-0.566,0.22
12/17/2014 11:08:07.739,-0.176,-0.34,0.246
12/17/2014 11:08:07.752,-0.147,-0.088,0.411
12/17/2014 11:08:07.763,-0.091,0.079,0.534
12/17/2014 11:08:07.776,-0.235,0.282,0.584
12/17/2014 11:08:07.789,-0.475,0.402,0.513
12/17/2014 11:08:07.802,-0.666,0.413,0.34
12/17/2014 11:08:07.813,-0.651,0.516,0.135
12/17/2014 11:08:07.826,-0.449,0.724,-0.029
12/17/2014 11:08:07.838,-0.179,0.801,-0.097
12/17/2014 11:08:07.851,0.094,0.686,0.018
12/17/2014 11:08:07.864,0.12,0.581,0.111
12/17/2014 11:08:07.877,-0.287,0.399,0.07
12/17/2014 11:08:07.888,-0.856,-0.284,0.211
12/17/2014 11:08:07.901,-0.891,-0.739,0.261
12/17/2014 11:08:07.914,-0.328,-1.457,0.375
12/17/2014 11:08:07.927,-0.49,-3,0.235
12/17/2014 11:08:07.938,-0.37,-3,1.021
12/17/2014 11:08:07.951,-0.123,-3,0.713
12/17/2014 11:08:07.963,0.035,-2.821,0.196
12/17/2014 11:08:07.976,0.61,-2.554,-0.05
12/17/2014 11:08:07.989,0.839,-2.413,-0.211
12/17/2014 11:08:08.002,1.079,-2.106,-0.411
12/17/2014 11:08:08.013,1.041,-1.765,-0.196
12/17/2014 11:08:08.026,0.44,-1.367,-0.044
12/17/2014 11:08:08.039,-0.12,-1.006,-0.053
12/17/2014 11:08:08.052,-0.346,-0.633,-0.07
12/17/2014 11:08:08.063,-0.566,-0.208,-0.147
12/17/2014 11:08:08.076,-0.695,0.123,-0.167
12/17/2014 11:08:08.088,-0.613,0.499,0.17
12/17/2014 11:08:08.101,-0.809,1.026,0.328
12/17/2014 11:08:08.114,-0.886,1.199,0.405
12/17/2014 11:08:08.127,-0.604,0.765,0.249
12/17/2014 11:08:08.138,-0.372,0.176,0.164
12/17/2014 11:08:08.151,-0.123,0.1,0.208
12/17/2014 11:08:08.164,-0.091,0.46,0.17
12/17/2014 11:08:08.177,-0.059,0.416,-0.053
12/17/2014 11:08:08.188,0.138,-0.088,-0.106
12/17/2014 11:08:08.201,0.147,-0.628,-0.097
12/17/2014 11:08:08.213,0.144,-0.413,-0.038
12/17/2014 11:08:08.226,-0.056,-0.924,-0.287
12/17/2014 11:08:08.239,0.475,-1.833,-0.569
12/17/2014 11:08:08.252,0.727,-2.487,-0.581
12/17/2014 11:08:08.263,0.795,-2.924,-0.038
12/17/2014 11:08:08.276,0.475,-2.695,0.34
12/17/2014 11:08:08.289,0,-2.346,0.196
12/17/2014 11:08:08.302,-0.361,-2.056,-0.041
12/17/2014 11:08:08.313,-0.49,-1.988,-0.123
12/17/2014 11:08:08.326,-0.276,-2.076,-0.003
12/17/2014 11:08:08.338,-0.059,-2.238,0.106
12/17/2014 11:08:08.351,0.132,-2.455,0.34
12/17/2014 11:08:08.364,0.34,-2.472,0.44
12/17/2014 11:08:08.377,0.267,-1.71,0.428
12/17/2014 11:08:08.388,-0.05,-0.818,0.361
12/17/2014 11:08:08.401,-0.455,-0.287,0.217
12/17/2014 11:08:08.414,-0.413,0.018,0.29
12/17/2014 11:08:08.427,-0.34,0.249,0.507
12/17/2014 11:08:08.438,-0.34,0.352,0.584
12/17/2014 11:08:08.451,-0.425,0.323,0.569
12/17/2014 11:08:08.463,-0.499,0.27,0.501
12/17/2014 11:08:08.476,-0.566,0.232,0.387
12/17/2014 11:08:08.489,-0.545,0.431,0.164
12/17/2014 11:08:08.502,-0.501,0.563,0.041
12/17/2014 11:08:08.513,-0.504,0.44,0.059
12/17/2014 11:08:08.526,-0.49,0.361,0.185
12/17/2014 11:08:08.539,-0.501,0.361,0.238
12/17/2014 11:08:08.552,-0.76,0,0.273
12/17/2014 11:08:08.563,-0.862,-0.446,0.32
12/17/2014 11:08:08.576,-0.575,-0.894,0.452
12/17/2014 11:08:08.588,-0.44,-1.721,0.276
12/17/2014 11:08:08.601,-0.651,-3,0.22
12/17/2014 11:08:08.614,-0.431,-3,0.742
12/17/2014 11:08:08.627,-0.012,-3,0.543
12/17/2014 11:08:08.638,0.434,-3,0.293
12/17/2014 11:08:08.651,0.871,-2.754,0.07
12/17/2014 11:08:08.664,1.126,-2.463,-0.34
12/17/2014 11:08:08.677,1.185,-1.977,-0.416
12/17/2014 11:08:08.688,0.947,-1.487,-0.167
12/17/2014 11:08:08.701,0.381,-1.17,-0.111
12/17/2014 11:08:08.713,-0.05,-0.592,-0.1
12/17/2014 11:08:08.726,-0.411,-0.065,-0.208
12/17/2014 11:08:08.739,-0.287,0.135,-0.205
12/17/2014 11:08:08.752,-0.276,0.416,-0.123
12/17/2014 11:08:08.763,-0.487,1.047,-0.085
12/17/2014 11:08:08.776,-0.499,1.114,-0.041
12/17/2014 11:08:08.789,-0.308,0.78,0.097
12/17/2014 11:08:08.802,-0.296,0.405,0.106
12/17/2014 11:08:08.813,-0.217,0.065,0.1
12/17/2014 11:08:08.826,-0.223,0.355,0.202
12/17/2014 11:08:08.838,-0.302,0.293,0.155
12/17/2014 11:08:08.851,-0.317,-0.381,0.038
12/17/2014 11:08:08.864,-0.109,-0.768,0.065
12/17/2014 11:08:08.877,-0.176,-0.622,0.155
12/17/2014 11:08:08.888,-0.513,-0.61,0.12
12/17/2014 11:08:08.901,-0.147,-1.375,-0.038
12/17/2014 11:08:08.914,0.088,-1.78,-0.425
12/17/2014 11:08:08.927,0.311,-2.173,-0.258
12/17/2014 11:08:08.938,0.68,-2.642,-0.009
12/17/2014 11:08:08.951,0.343,-2.548,0.129
12/17/2014 11:08:08.963,0.047,-2.232,0.106
12/17/2014 11:08:08.976,-0.144,-1.985,-0.111
12/17/2014 11:08:08.989,-0.208,-1.839,-0.079
12/17/2014 11:08:09.002,0,-1.927,0.106
12/17/2014 11:08:09.013,0.07,-2.188,0.135
12/17/2014 11:08:09.026,0.167,-2.37,0.355
12/17/2014 11:08:09.039,0.252,-1.991,0.39
12/17/2014 11:08:09.052,0.396,-1.27,0.346
12/17/2014 11:08:09.063,0.006,-0.613,0.164
12/17/2014 11:08:09.076,-0.147,-0.296,0.226
12/17/2014 11:08:09.088,-0.232,0.073,0.29
12/17/2014 11:08:09.101,-0.317,0.302,0.317
12/17/2014 11:08:09.114,-0.267,0.46,0.299
12/17/2014 11:08:09.127,-0.264,0.545,0.217
12/17/2014 11:08:09.138,-0.352,0.566,0.182
12/17/2014 11:08:09.151,-0.413,0.499,0.22
12/17/2014 11:08:09.164,-0.419,0.478,0.211
12/17/2014 11:08:09.177,-0.39,0.387,0.235
12/17/2014 11:08:09.188,-0.44,0.246,0.355
12/17/2014 11:08:09.201,-0.798,0.076,0.446
12/17/2014 11:08:09.213,-1.173,-0.34,0.469
12/17/2014 11:08:09.226,-1.138,-0.721,0.68
12/17/2014 11:08:09.239,-1.012,-1.264,0.798
12/17/2014 11:08:09.252,-1.003,-2.757,0.543
12/17/2014 11:08:09.263,-0.862,-3,1.114
12/17/2014 11:08:09.276,-0.575,-3,1.1
12/17/2014 11:08:09.289,-0.047,-3,0.413
12/17/2014 11:08:09.302,0.443,-2.545,-0.023
12/17/2014 11:08:09.313,0.566,-2.431,-0.106
12/17/2014 11:08:09.326,0.798,-2.117,-0.097
12/17/2014 11:08:09.338,0.889,-1.88,-0.135
12/17/2014 11:08:09.351,0.721,-1.531,-0.1
12/17/2014 11:08:09.364,0.293,-1.235,0
12/17/2014 11:08:09.377,-0.021,-0.804,0
12/17/2014 11:08:09.388,-0.255,-0.179,-0.196
12/17/2014 11:08:09.401,-0.44,0.293,-0.416
12/17/2014 11:08:09.414,-0.314,0.804,-0.179
12/17/2014 11:08:09.427,-0.402,1.331,0.059
12/17/2014 11:08:09.438,-0.425,1.405,-0.026
12/17/2014 11:08:09.451,-0.217,0.815,-0.015
12/17/2014 11:08:09.463,-0.012,0.129,0.05
12/17/2014 11:08:09.476,0.161,-0.003,0.164
12/17/2014 11:08:09.489,0.129,0.117,0.167
12/17/2014 11:08:09.502,-0.103,0.161,0.012
12/17/2014 11:08:09.513,0.05,-0.217,-0.041
12/17/2014 11:08:09.526,0.114,-0.487,-0.079
12/17/2014 11:08:09.539,-0.114,-0.666,-0.065
12/17/2014 11:08:09.552,-0.692,-0.56,-0.07
12/17/2014 11:08:09.563,-0.528,-1.085,-0.208
12/17/2014 11:08:09.576,0.123,-1.909,-0.551
12/17/2014 11:08:09.588,0.765,-2.716,-0.32
12/17/2014 11:08:09.601,1.021,-3,0.243
12/17/2014 11:08:09.614,0.384,-2.554,0.413
12/17/2014 11:08:09.627,-0.164,-2.07,0.243
12/17/2014 11:08:09.638,-0.548,-1.78,0.029
12/17/2014 11:08:09.651,-0.798,-1.748,0.05
12/17/2014 11:08:09.664,-0.818,-2.103,0.264
12/17/2014 11:08:09.677,-0.513,-2.346,0.375
12/17/2014 11:08:09.688,-0.205,-2.264,0.314
12/17/2014 11:08:09.701,-0.103,-1.648,0.349
12/17/2014 11:08:09.713,-0.114,-0.979,0.399
12/17/2014 11:08:09.726,-0.252,-0.487,0.334
12/17/2014 11:08:09.739,-0.352,-0.267,0.349
12/17/2014 11:08:09.752,-0.211,-0.065,0.452
12/17/2014 11:08:09.763,-0.191,0.085,0.563
12/17/2014 11:08:09.776,-0.217,0.279,0.528
12/17/2014 11:08:09.789,-0.381,0.372,0.455
12/17/2014 11:08:09.802,-0.522,0.367,0.276
12/17/2014 11:08:09.813,-0.499,0.504,0.141
12/17/2014 11:08:09.826,-0.396,0.683,0.041
12/17/2014 11:08:09.838,-0.223,0.61,0.032
12/17/2014 11:08:09.851,-0.029,0.484,0.1
12/17/2014 11:08:09.864,-0.05,0.431,0.079
12/17/2014 11:08:09.877,-0.413,0.144,-0.059
12/17/2014 11:08:09.888,-0.657,-0.405,0.226
12/17/2014 11:08:09.901,-0.49,-0.815,0.364
12/17/2014 11:08:09.914,-0.317,-1.587,0.258
12/17/2014 11:08:09.927,-0.742,-3,0.161
12/17/2014 11:08:09.938,-0.721,-3,1.05
12/17/2014 11:08:09.951,-0.413,-3,0.63
12/17/2014 11:08:09.963,-0.196,-2.672,0.05
12/17/2014 11:08:09.976,0.249,-2.384,-0.111
12/17/2014 11:08:09.989,0.557,-2.147,-0.323
12/17/2014 11:08:10.002,0.991,-2.129,-0.543
12/17/2014 11:08:10.013,1.12,-1.818,-0.232
12/17/2014 11:08:10.026,0.672,-1.487,-0.067
12/17/2014 11:08:10.039,0.035,-0.968,-0.044
12/17/2014 11:08:10.052,-0.352,-0.405,-0.12
12/17/2014 11:08:10.063,-0.669,0.056,-0.191
12/17/2014 11:08:10.076,-0.727,0.384,-0.138
12/17/2014 11:08:10.088,-0.677,0.88,0.138
12/17/2014 11:08:10.101,-0.692,1.205,0.223
12/17/2014 11:08:10.114,-0.604,0.968,0.364
12/17/2014 11:08:10.127,-0.507,0.384,0.29
12/17/2014 11:08:10.138,-0.287,-0.026,0.276
12/17/2014 11:08:10.151,0.006,0.287,0.308
12/17/2014 11:08:10.164,-0.062,0.543,0.106
12/17/2014 11:08:10.177,-0.026,-0.018,0.018
12/17/2014 11:08:10.188,0.188,-0.463,0.056
12/17/2014 11:08:10.201,0.164,-0.639,-0.15
12/17/2014 11:08:10.213,0.029,-0.381,-0.097
12/17/2014 11:08:10.226,-0.279,-0.906,-0.399
12/17/2014 11:08:10.239,0.135,-1.739,-0.68
12/17/2014 11:08:10.252,0.419,-2.299,-0.648
12/17/2014 11:08:10.263,0.68,-3,0.029
12/17/2014 11:08:10.276,0.46,-2.994,0.46
12/17/2014 11:08:10.289,-0.07,-2.598,0.358
12/17/2014 11:08:10.302,-0.34,-2.147,0.044
12/17/2014 11:08:10.313,-0.384,-1.971,0.009
12/17/2014 11:08:10.326,-0.37,-2.179,0.135
12/17/2014 11:08:10.338,-0.164,-2.507,0.293
12/17/2014 11:08:10.351,-0.135,-2.103,0.37
12/17/2014 11:08:10.364,-0.217,-1.367,0.381
12/17/2014 11:08:10.377,-0.191,-0.924,0.314
12/17/2014 11:08:10.388,-0.314,-0.522,0.176
12/17/2014 11:08:10.401,-0.217,-0.179,0.32
12/17/2014 11:08:10.414,-0.079,0.079,0.484
12/17/2014 11:08:10.427,-0.05,0.246,0.437
12/17/2014 11:08:10.438,-0.164,0.279,0.37
12/17/2014 11:08:10.451,-0.238,0.249,0.411
12/17/2014 11:08:10.463,-0.293,0.249,0.37
12/17/2014 11:08:10.476,-0.375,0.317,0.293
12/17/2014 11:08:10.489,-0.375,0.361,0.194
12/17/2014 11:08:10.502,-0.352,0.358,0.094
12/17/2014 11:08:10.513,-0.405,0.296,0.138
12/17/2014 11:08:10.526,-0.308,0.299,0.267
12/17/2014 11:08:10.539,-0.513,0.314,0.238
12/17/2014 11:08:10.552,-1.009,-0.276,0.317
12/17/2014 11:08:10.563,-1.023,-0.648,0.437
12/17/2014 11:08:10.576,-0.636,-1.091,0.566
12/17/2014 11:08:10.588,-0.889,-2.727,0.355
12/17/2014 11:08:10.601,-0.871,-3,0.912
12/17/2014 11:08:10.614,-0.261,-3,0.856
12/17/2014 11:08:10.627,0.106,-3,0.267
12/17/2014 11:08:10.638,0.507,-2.765,0.1
12/17/2014 11:08:10.651,0.85,-2.504,-0.167
12/17/2014 11:08:10.664,1.243,-2.293,-0.484
12/17/2014 11:08:10.677,1.147,-1.85,-0.261
12/17/2014 11:08:10.688,0.666,-1.346,0.023
12/17/2014 11:08:10.701,-0.006,-0.789,0.082
12/17/2014 11:08:10.713,-0.472,-0.282,-0.053
12/17/2014 11:08:10.726,-0.751,-0.032,-0.12
12/17/2014 11:08:10.739,-0.721,0.434,-0.067
12/17/2014 11:08:10.752,-0.633,0.815,0.111
12/17/2014 11:08:10.763,-0.625,1.284,-0.003
12/17/2014 11:08:10.776,-0.513,1.235,0.135
12/17/2014 11:08:10.789,-0.375,0.686,0.202
12/17/2014 11:08:10.802,-0.284,0.343,0.15
12/17/2014 11:08:10.813,-0.129,-0.015,0.053
12/17/2014 11:08:10.826,0.047,0.12,-0.012
12/17/2014 11:08:10.838,0.015,0.211,0.015
12/17/2014 11:08:10.851,-0.076,0.103,-0.059
12/17/2014 11:08:10.864,0.15,-0.381,-0.249
12/17/2014 11:08:10.877,0.22,-0.804,-0.15
12/17/2014 11:08:10.888,-0.657,-0.933,-0.065
12/17/2014 11:08:10.901,-0.504,-1.452,-0.018
12/17/2014 11:08:10.914,0.361,-2.232,-0.372
12/17/2014 11:08:10.927,0.871,-2.9,-0.17
12/17/2014 11:08:10.938,0.9,-3,0.428
12/17/2014 11:08:10.951,0.323,-2.83,0.563
12/17/2014 11:08:10.963,-0.117,-2.443,0.287
12/17/2014 11:08:10.976,-0.396,-2.047,0.106
12/17/2014 11:08:10.989,-0.44,-2.047,0.067
12/17/2014 11:08:11.002,-0.238,-2.619,0.384
12/17/2014 11:08:11.013,-0.144,-2.431,0.372
12/17/2014 11:08:11.026,-0.191,-1.798,0.425
12/17/2014 11:08:11.039,-0.182,-1.109,0.472
12/17/2014 11:08:11.052,-0.287,-0.727,0.343
12/17/2014 11:08:11.063,-0.164,-0.372,0.358
12/17/2014 11:08:11.076,-0.056,0.035,0.361
12/17/2014 11:08:11.088,0.003,0.355,0.346
12/17/2014 11:08:11.101,-0.123,0.584,0.273
12/17/2014 11:08:11.114,-0.246,0.519,0.261
12/17/2014 11:08:11.127,-0.267,0.331,0.273
12/17/2014 11:08:11.138,-0.323,0.284,0.155
12/17/2014 11:08:11.151,-0.314,0.361,0.073
12/17/2014 11:08:11.164,-0.238,0.455,-0.009
12/17/2014 11:08:11.177,-0.235,0.381,-0.023
12/17/2014 11:08:11.188,-0.173,0.249,0.097
12/17/2014 11:08:11.201,-0.065,0.123,0.208
12/17/2014 11:08:11.213,-0.135,0.026,0.334
12/17/2014 11:08:11.226,-0.804,-0.293,0.431
12/17/2014 11:08:11.239,-1.413,-0.982,0.32
12/17/2014 11:08:11.252,-1.258,-1.716,0.83
12/17/2014 11:08:11.263,-1.012,-3,0.886
12/17/2014 11:08:11.276,-1.27,-3,1.196
12/17/2014 11:08:11.289,-0.724,-3,0.771
12/17/2014 11:08:11.302,-0.147,-3,0.399
12/17/2014 11:08:11.313,0.604,-2.947,0.17
12/17/2014 11:08:11.326,0.874,-2.504,0.067
12/17/2014 11:08:11.338,1.082,-2.191,-0.249
12/17/2014 11:08:11.351,1.07,-1.795,-0.185
12/17/2014 11:08:11.364,0.713,-1.299,-0.202
12/17/2014 11:08:11.377,-0.018,-0.633,-0.056
12/17/2014 11:08:11.388,-0.457,0.079,-0.129
12/17/2014 11:08:11.401,-0.355,0.387,-0.276
12/17/2014 11:08:11.414,-0.22,0.581,-0.141
12/17/2014 11:08:11.427,-0.261,1.214,-0.065
12/17/2014 11:08:11.438,-0.402,1.587,0.085
12/17/2014 11:08:11.451,-0.352,1.1,0.167
12/17/2014 11:08:11.463,-0.196,0.619,0.138
12/17/2014 11:08:11.476,-0.132,0.047,-0.05
12/17/2014 11:08:11.489,0.029,-0.056,0.088
12/17/2014 11:08:11.502,-0.056,0.194,0.085
12/17/2014 11:08:11.513,-0.287,-0.015,-0.088
12/17/2014 11:08:11.526,-0.021,-0.472,-0.012
12/17/2014 11:08:11.539,0.469,-0.754,-0.056
12/17/2014 11:08:11.552,0.557,-0.575,-0.328
12/17/2014 11:08:11.563,-0.771,-0.575,-0.279
12/17/2014 11:08:11.576,-0.683,-1.167,-0.17
12/17/2014 11:08:11.588,-0.167,-1.938,-0.191
12/17/2014 11:08:11.601,-0.091,-2.774,-0.07
12/17/2014 11:08:11.614,0.056,-3,0.569
12/17/2014 11:08:11.627,-0.032,-2.935,0.507
12/17/2014 11:08:11.638,-0.167,-2.639,0.182
12/17/2014 11:08:11.651,0.103,-2.381,-0.1
12/17/2014 11:08:11.664,0.337,-2.114,-0.164
12/17/2014 11:08:11.677,0.276,-2.54,0.12
12/17/2014 11:08:11.688,0.032,-2.578,0.469
12/17/2014 11:08:11.701,-0.293,-1.601,0.496
12/17/2014 11:08:11.713,-0.428,-1.003,0.422
12/17/2014 11:08:11.726,-0.396,-0.783,0.361
12/17/2014 11:08:11.739,-0.091,-0.372,0.334
12/17/2014 11:08:11.752,-0.021,0.1,0.375
12/17/2014 11:08:11.763,-0.062,0.428,0.358
12/17/2014 11:08:11.776,-0.12,0.551,0.279
12/17/2014 11:08:11.789,-0.158,0.528,0.238
12/17/2014 11:08:11.802,-0.164,0.463,0.185
12/17/2014 11:08:11.813,-0.22,0.563,0.138
12/17/2014 11:08:11.826,-0.223,0.636,0.094
12/17/2014 11:08:11.838,-0.176,0.569,0.05
12/17/2014 11:08:11.851,-0.22,0.419,0.085
12/17/2014 11:08:11.864,-0.161,0.264,0.208
12/17/2014 11:08:11.877,-0.179,0.132,0.402
12/17/2014 11:08:11.888,-0.815,-0.22,0.499
12/17/2014 11:08:11.901,-1.654,-0.988,0.355
12/17/2014 11:08:11.914,-1.484,-1.625,0.754
12/17/2014 11:08:11.927,-1.053,-3,0.771
12/17/2014 11:08:11.938,-0.695,-3,1.34
12/17/2014 11:08:11.951,-0.323,-3,0.689
12/17/2014 11:08:11.963,-0.012,-3,0.123
12/17/2014 11:08:11.976,0.484,-2.801,0.094
12/17/2014 11:08:11.989,0.889,-2.457,-0.053
12/17/2014 11:08:12.002,1.106,-2.24,-0.384
12/17/2014 11:08:12.013,0.997,-1.886,-0.261
12/17/2014 11:08:12.026,0.501,-1.428,-0.161
12/17/2014 11:08:12.039,-0.138,-0.516,-0.106
12/17/2014 11:08:12.052,-0.628,0.326,-0.15
12/17/2014 11:08:12.063,-0.513,0.516,-0.155
12/17/2014 11:08:12.076,-0.487,0.692,0.012
12/17/2014 11:08:12.088,-0.698,1.29,-0.07
12/17/2014 11:08:12.101,-0.774,1.343,0.185
12/17/2014 11:08:12.114,-0.44,0.938,0.328
12/17/2014 11:08:12.127,-0.094,0.355,0.205
12/17/2014 11:08:12.138,0.211,-0.191,-0.065
12/17/2014 11:08:12.151,0.39,-0.164,-0.015
12/17/2014 11:08:12.164,0.282,0.085,0.123
12/17/2014 11:08:12.177,0.22,0.328,0.067
12/17/2014 11:08:12.188,0.114,0.135,-0.258
12/17/2014 11:08:12.201,0.446,-0.475,-0.082
12/17/2014 11:08:12.213,0.24,-0.698,-0.1
12/17/2014 11:08:12.226,-0.751,-0.842,-0.05
12/17/2014 11:08:12.239,-0.783,-1.425,-0.07
12/17/2014 11:08:12.252,-0.032,-2.041,-0.355
12/17/2014 11:08:12.263,0.411,-2.736,-0.249
12/17/2014 11:08:12.276,0.68,-3,0.232
12/17/2014 11:08:12.289,0.323,-2.874,0.422
12/17/2014 11:08:12.302,-0.12,-2.592,0.205
12/17/2014 11:08:12.313,-0.208,-2.103,-0.003
12/17/2014 11:08:12.326,-0.167,-2.279,-0.05
12/17/2014 11:08:12.338,0.106,-2.815,0.314
12/17/2014 11:08:12.351,-0.073,-2.287,0.399
12/17/2014 11:08:12.364,-0.311,-1.487,0.472
12/17/2014 11:08:12.377,-0.592,-0.874,0.402
12/17/2014 11:08:12.388,-0.569,-0.754,0.457
12/17/2014 11:08:12.401,-0.413,-0.475,0.598
12/17/2014 11:08:12.414,-0.501,0.076,0.727
12/17/2014 11:08:12.427,-0.487,0.419,0.73
12/17/2014 11:08:12.438,-0.434,0.484,0.619
12/17/2014 11:08:12.451,-0.296,0.434,0.487
12/17/2014 11:08:12.463,-0.226,0.405,0.317
12/17/2014 11:08:12.476,-0.308,0.531,0.155
12/17/2014 11:08:12.489,-0.255,0.578,0.038
12/17/2014 11:08:12.502,-0.182,0.504,-0.023
12/17/2014 11:08:12.513,-0.167,0.405,0.114
12/17/2014 11:08:12.526,-0.065,0.323,0.264
12/17/2014 11:08:12.539,-0.147,0.226,0.29
12/17/2014 11:08:12.552,-0.751,-0.469,0.399
12/17/2014 11:08:12.563,-1.202,-1.264,0.287
12/17/2014 11:08:12.576,-0.974,-2.015,0.575
12/17/2014 11:08:12.588,-0.918,-3,0.452
12/17/2014 11:08:12.601,-0.642,-3,0.977
12/17/2014 11:08:12.614,-0.182,-3,0.372
12/17/2014 11:08:12.627,0.314,-3,0.053
12/17/2014 11:08:12.638,0.669,-2.607,-0.015
12/17/2014 11:08:12.651,1.155,-2.328,-0.422
12/17/2014 11:08:12.664,1.258,-2.109,-0.519
12/17/2014 11:08:12.677,0.921,-1.472,-0.15
12/17/2014 11:08:12.688,0.202,-0.768,0.129
12/17/2014 11:08:12.701,-0.633,-0.158,0.044
12/17/2014 11:08:12.713,-0.924,0.202,-0.161
12/17/2014 11:08:12.726,-0.933,0.425,0.065
12/17/2014 11:08:12.739,-0.9,0.918,0.097
12/17/2014 11:08:12.752,-0.745,1.425,0.138
12/17/2014 11:08:12.763,-0.44,1.123,0.364
12/17/2014 11:08:12.776,-0.296,0.818,0.276
12/17/2014 11:08:12.789,-0.22,0.411,0.073
12/17/2014 11:08:12.802,-0.021,-0.044,-0.056
12/17/2014 11:08:12.813,0.164,-0.006,-0.032
12/17/2014 11:08:12.826,-0.021,0.106,0.023
12/17/2014 11:08:12.838,0.091,0.205,0.05
12/17/2014 11:08:12.851,0.188,-0.326,-0.023
12/17/2014 11:08:12.864,0.557,-0.716,-0.07
12/17/2014 11:08:12.877,-0.179,-0.654,-0.22
12/17/2014 11:08:12.888,-0.716,-1.191,-0.191
12/17/2014 11:08:12.901,-0.358,-1.777,-0.305
12/17/2014 11:08:12.914,0.194,-2.238,-0.499
12/17/2014 11:08:12.927,0.46,-2.886,-0.088
12/17/2014 11:08:12.938,0.405,-3,0.411
12/17/2014 11:08:12.951,0.035,-2.947,0.431
12/17/2014 11:08:12.963,-0.088,-2.534,0.155
12/17/2014 11:08:12.976,0.059,-2.372,-0.094
12/17/2014 11:08:12.989,0.252,-2.833,0.273
12/17/2014 11:08:13.002,0.252,-2.877,0.472
12/17/2014 11:08:13.013,-0.152,-1.921,0.481
12/17/2014 11:08:13.026,-0.522,-1.056,0.443
12/17/2014 11:08:13.039,-0.604,-0.877,0.37
12/17/2014 11:08:13.052,-0.282,-0.584,0.428
12/17/2014 11:08:13.063,-0.1,0.012,0.452
12/17/2014 11:08:13.076,-0.073,0.487,0.402
12/17/2014 11:08:13.088,-0.158,0.683,0.293
12/17/2014 11:08:13.101,-0.223,0.543,0.343
12/17/2014 11:08:13.114,-0.284,0.375,0.343
12/17/2014 11:08:13.127,-0.387,0.416,0.32
12/17/2014 11:08:13.138,-0.402,0.513,0.264
12/17/2014 11:08:13.151,-0.358,0.487,0.123
12/17/2014 11:08:13.164,-0.396,0.39,0.141
12/17/2014 11:08:13.177,-0.361,0.331,0.267
12/17/2014 11:08:13.188,-0.196,0.188,0.375
12/17/2014 11:08:13.201,-0.235,-0.012,0.537
12/17/2014 11:08:13.213,-0.903,-0.493,0.402
12/17/2014 11:08:13.226,-1.572,-1.449,0.284
12/17/2014 11:08:13.239,-1.284,-2.117,0.54
12/17/2014 11:08:13.252,-0.701,-3,0.537
12/17/2014 11:08:13.263,-0.144,-3,0.689
12/17/2014 11:08:13.276,0.314,-3,0.246
12/17/2014 11:08:13.289,0.49,-3,0.293
12/17/2014 11:08:13.302,0.965,-2.871,0.12
12/17/2014 11:08:13.313,1.419,-2.282,-0.372
12/17/2014 11:08:13.326,1.361,-1.613,-0.519
12/17/2014 11:08:13.338,0.924,-1.152,-0.317
12/17/2014 11:08:13.351,0.018,-0.419,-0.179
12/17/2014 11:08:13.364,-0.475,0.24,-0.1
12/17/2014 11:08:13.377,-0.801,0.372,-0.032
12/17/2014 11:08:13.388,-1.082,0.677,-0.029
12/17/2014 11:08:13.401,-1.065,1.185,0.097
12/17/2014 11:08:13.414,-0.827,1.076,0.308
12/17/2014 11:08:13.427,-0.604,0.859,0.361
12/17/2014 11:08:13.438,-0.287,0.589,0.079
12/17/2014 11:08:13.451,-0.1,-0.12,-0.023
12/17/2014 11:08:13.463,0.164,0.032,-0.029
12/17/2014 11:08:13.476,0.035,0.085,0.012
12/17/2014 11:08:13.489,0.179,0.232,0.109
12/17/2014 11:08:13.502,0.211,0.205,-0.109
12/17/2014 11:08:13.513,0.293,-0.446,-0.056
12/17/2014 11:08:13.526,-0.202,-0.578,0.12
12/17/2014 11:08:13.539,-0.894,-1.235,0.073
12/17/2014 11:08:13.552,-0.757,-1.716,-0.164
12/17/2014 11:08:13.563,-0.381,-1.894,-0.402
12/17/2014 11:08:13.576,0.012,-2.284,-0.355
12/17/2014 11:08:13.588,0.534,-2.842,0.243
12/17/2014 11:08:13.601,0.381,-2.745,0.372
12/17/2014 11:08:13.614,0.056,-2.848,0.346
12/17/2014 11:08:13.627,-0.079,-2.85,0.249
12/17/2014 11:08:13.638,0.088,-2.795,0.138
12/17/2014 11:08:13.651,0.173,-2.739,0.17
12/17/2014 11:08:13.664,-0.144,-1.85,0.205
12/17/2014 11:08:13.677,-0.478,-1.109,0.343
12/17/2014 11:08:13.688,-0.613,-1.009,0.375
12/17/2014 11:08:13.701,-0.443,-1.188,0.452
12/17/2014 11:08:13.713,-0.217,-0.434,0.416
12/17/2014 11:08:13.726,-0.015,0.455,0.299
12/17/2014 11:08:13.739,-0.065,0.862,0.155
12/17/2014 11:08:13.752,-0.164,0.801,0.023
12/17/2014 11:08:13.763,0.006,0.487,0.032
12/17/2014 11:08:13.776,0.164,0.358,0.12
12/17/2014 11:08:13.789,0.173,0.346,0.176
12/17/2014 11:08:13.802,0.041,0.205,0.226
12/17/2014 11:08:13.813,-0.226,0.047,0.264
12/17/2014 11:08:13.826,-0.578,-0.152,0.343
12/17/2014 11:08:13.838,-0.76,-0.147,0.446
12/17/2014 11:08:13.851,-0.818,-0.088,0.622
12/17/2014 11:08:13.864,-1.349,-0.425,0.716
12/17/2014 11:08:13.877,-1.804,-1.173,0.754
12/17/2014 11:08:13.888,-1.674,-1.29,1.065
12/17/2014 11:08:13.901,-1.114,-2.499,0.68
12/17/2014 11:08:13.914,-0.669,-3,0.364
12/17/2014 11:08:13.927,0.138,-3,0.428
12/17/2014 11:08:13.938,0.918,-3,0.472
12/17/2014 11:08:13.951,1.082,-3,0.314
12/17/2014 11:08:13.963,1.258,-2.425,-0.135
12/17/2014 11:08:13.976,1.328,-1.894,-0.431
12/17/2014 11:08:13.989,1.035,-1.396,-0.226
12/17/2014 11:08:14.002,0.328,-0.903,-0.023
12/17/2014 11:08:14.013,-0.355,-0.103,0.026
12/17/2014 11:08:14.026,-0.522,0.223,0.029
12/17/2014 11:08:14.039,-0.815,0.581,0.041
12/17/2014 11:08:14.052,-0.874,1.246,0.026
12/17/2014 11:08:14.063,-0.683,1.642,0.012
12/17/2014 11:08:14.076,-0.455,1.372,0.208
12/17/2014 11:08:14.088,-0.129,0.9,0.217
12/17/2014 11:08:14.101,-0.12,0.191,0.044
12/17/2014 11:08:14.114,-0.217,-0.302,-0.082
12/17/2014 11:08:14.127,-0.164,-0.182,0.015
12/17/2014 11:08:14.138,-0.293,-0.032,0.211
12/17/2014 11:08:14.151,-0.326,0.05,0.179
12/17/2014 11:08:14.164,-0.006,-0.117,-0.226
12/17/2014 11:08:14.177,0.513,-0.619,-0.056
12/17/2014 11:08:14.188,0.578,-0.499,-0.17
12/17/2014 11:08:14.201,-0.695,-0.56,-0.238
12/17/2014 11:08:14.213,-0.83,-1.226,-0.073
12/17/2014 11:08:14.226,-0.387,-1.73,-0.267
12/17/2014 11:08:14.239,0.504,-2.786,-0.346
12/17/2014 11:08:14.252,0.724,-3,0.094
12/17/2014 11:08:14.263,0.282,-3,0.484
12/17/2014 11:08:14.276,-0.041,-2.666,0.243
12/17/2014 11:08:14.289,-0.003,-2.117,-0.196
12/17/2014 11:08:14.302,-0.12,-2.478,-0.235
12/17/2014 11:08:14.313,0.1,-3,0.61
12/17/2014 11:08:14.326,-0.012,-2.355,0.507
12/17/2014 11:08:14.338,-0.352,-1.413,0.575
12/17/2014 11:08:14.351,-0.61,-0.754,0.437
12/17/2014 11:08:14.364,-0.299,-0.384,0.452
12/17/2014 11:08:14.377,-0.07,0.205,0.425
12/17/2014 11:08:14.388,-0.167,0.701,0.519
12/17/2014 11:08:14.401,-0.27,0.774,0.44
12/17/2014 11:08:14.414,-0.326,0.475,0.34
12/17/2014 11:08:14.427,-0.311,0.293,0.287
12/17/2014 11:08:14.438,-0.302,0.34,0.235
12/17/2014 11:08:14.451,-0.196,0.361,0.167
12/17/2014 11:08:14.463,-0.123,0.279,0.018
12/17/2014 11:08:14.476,-0.179,0.144,0.065
12/17/2014 11:08:14.489,-0.232,0.114,0.17
12/17/2014 11:08:14.502,-0.208,0.144,0.323
12/17/2014 11:08:14.513,-0.73,-0.129,0.534
12/17/2014 11:08:14.526,-1.437,-1.003,0.513
12/17/2014 11:08:14.539,-1.367,-1.484,0.804
12/17/2014 11:08:14.552,-1.167,-2.607,0.689
12/17/2014 11:08:14.563,-1.026,-3,0.871
12/17/2014 11:08:14.576,-0.493,-3,0.76
12/17/2014 11:08:14.588,0.041,-3,0.273
12/17/2014 11:08:14.601,0.654,-2.859,0.07
12/17/2014 11:08:14.614,1.111,-2.279,-0.097
12/17/2014 11:08:14.627,1.408,-1.997,-0.428
12/17/2014 11:08:14.638,1.44,-1.871,-0.273
12/17/2014 11:08:14.651,0.804,-1.018,0.012
12/17/2014 11:08:14.664,-0.059,0,0.123
12/17/2014 11:08:14.677,-0.381,-0.114,0.15
12/17/2014 11:08:14.688,-0.68,0.24,-0.026
12/17/2014 11:08:14.701,-0.865,0.745,0.032
12/17/2014 11:08:14.713,-0.751,1.411,-0.05
12/17/2014 11:08:14.726,-0.548,1.437,-0.018
12/17/2014 11:08:14.739,-0.311,1.155,0.079
12/17/2014 11:08:14.752,0.091,0.428,0.003
12/17/2014 11:08:14.763,0.12,-0.065,-0.082
12/17/2014 11:08:14.776,0.179,-0.284,-0.038
12/17/2014 11:08:14.789,0.117,-0.029,-0.141
12/17/2014 11:08:14.802,0.021,0.117,-0.065
12/17/2014 11:08:14.813,0.179,-0.041,-0.082
12/17/2014 11:08:14.826,0.346,-0.507,-0.202
12/17/2014 11:08:14.838,-0.457,-0.774,0.152
12/17/2014 11:08:14.851,-1.39,-1.537,0
12/17/2014 11:08:14.864,-0.701,-2.425,0.238
12/17/2014 11:08:14.877,0.05,-2.809,0.123
12/17/2014 11:08:14.888,0.449,-2.701,-0.056
12/17/2014 11:08:14.901,0.293,-2.39,0.056
12/17/2014 11:08:14.914,-0.276,-2.047,0.053
12/17/2014 11:08:14.927,-0.475,-1.777,0.05
12/17/2014 11:08:14.938,-0.672,-1.76,-0.1
12/17/2014 11:08:14.951,-0.607,-2.642,0.305
12/17/2014 11:08:14.963,-0.44,-3,0.584
12/17/2014 11:08:14.976,-0.208,-2.446,0.425
12/17/2014 11:08:14.989,-0.094,-1.701,0.387
12/17/2014 11:08:15.002,-0.326,-0.906,0.232
12/17/2014 11:08:15.013,-0.499,-0.455,0.226
12/17/2014 11:08:15.026,-0.279,-0.326,0.46
12/17/2014 11:08:15.039,-0.191,0.144,0.519
12/17/2014 11:08:15.052,-0.211,0.531,0.375
12/17/2014 11:08:15.063,-0.205,0.487,0.284
12/17/2014 11:08:15.076,-0.114,0.249,0.196
12/17/2014 11:08:15.088,-0.088,0.299,0.111
12/17/2014 11:08:15.101,-0.12,0.449,0.114
12/17/2014 11:08:15.114,-0.091,0.592,-0.018
12/17/2014 11:08:15.127,-0.079,0.56,-0.056
12/17/2014 11:08:15.138,-0.167,0.411,0.141
12/17/2014 11:08:15.151,-0.211,0.34,0.284
12/17/2014 11:08:15.164,-0.088,0.22,0.425
12/17/2014 11:08:15.177,-0.501,-0.079,0.54
12/17/2014 11:08:15.188,-1.287,-0.933,0.534
12/17/2014 11:08:15.201,-1.598,-1.633,0.754
12/17/2014 11:08:15.213,-1.279,-2.551,0.941
12/17/2014 11:08:15.226,-1.032,-3,0.812
12/17/2014 11:08:15.239,-0.425,-3,0.672
12/17/2014 11:08:15.252,0.346,-3,0.46
12/17/2014 11:08:15.263,0.991,-3,0.334
12/17/2014 11:08:15.276,1.601,-2.639,-0.032
12/17/2014 11:08:15.289,1.798,-2.035,-0.317
12/17/2014 11:08:15.302,1.478,-1.428,-0.331
12/17/2014 11:08:15.313,0.595,-0.874,-0.202
12/17/2014 11:08:15.326,-0.065,-0.109,-0.012
12/17/2014 11:08:15.338,-0.267,-0.106,0.07
12/17/2014 11:08:15.351,-0.613,0.522,-0.114
12/17/2014 11:08:15.364,-0.804,1.123,-0.097
12/17/2014 11:08:15.377,-0.683,1.598,-0.138
12/17/2014 11:08:15.388,-0.419,1.507,-0.053
12/17/2014 11:08:15.401,-0.15,0.848,0.07
12/17/2014 11:08:15.414,-0.129,0.249,0.018
12/17/2014 11:08:15.427,-0.088,-0.132,0.009
12/17/2014 11:08:15.438,-0.003,0.076,-0.056
12/17/2014 11:08:15.451,0.012,0.331,-0.182
12/17/2014 11:08:15.463,-0.021,0.056,-0.161
12/17/2014 11:08:15.476,0.255,-0.534,-0.126
12/17/2014 11:08:15.489,-0.39,-0.862,0.059
12/17/2014 11:08:15.502,-1.299,-1.63,-0.196
12/17/2014 11:08:15.513,-0.845,-2.651,0.109
12/17/2014 11:08:15.526,0.109,-3,0.334
12/17/2014 11:08:15.539,0.472,-3,0.267
12/17/2014 11:08:15.552,0.062,-2.446,0.39
12/17/2014 11:08:15.563,-0.528,-1.88,0.152
12/17/2014 11:08:15.576,-0.771,-1.516,0.032
12/17/2014 11:08:15.588,-1.047,-1.551,-0.029
12/17/2014 11:08:15.601,-1.021,-2.472,0.328
12/17/2014 11:08:15.614,-0.56,-2.604,0.578
12/17/2014 11:08:15.627,-0.223,-2.337,0.636
12/17/2014 11:08:15.638,0.018,-1.716,0.457
12/17/2014 11:08:15.651,0.144,-0.935,0.176
12/17/2014 11:08:15.664,-0.026,-0.282,0.05
12/17/2014 11:08:15.677,0.085,-0.079,0.161
12/17/2014 11:08:15.688,0.223,0.519,0.182
12/17/2014 11:08:15.701,0.167,0.982,0.059
12/17/2014 11:08:15.713,0.012,0.833,-0.176
12/17/2014 11:08:15.726,0.103,0.232,-0.194
12/17/2014 11:08:15.739,0.188,0.088,-0.138
12/17/2014 11:08:15.752,0.152,0.129,-0.088
12/17/2014 11:08:15.763,0.029,0.076,-0.041
12/17/2014 11:08:15.776,-0.182,-0.029,0.018
12/17/2014 11:08:15.789,-0.323,-0.015,0.135
12/17/2014 11:08:15.802,-0.264,0.012,0.164
12/17/2014 11:08:15.813,-0.56,-0.044,0.202
12/17/2014 11:08:15.826,-1.452,-0.663,0.466
12/17/2014 11:08:15.838,-1.965,-0.974,0.938
12/17/2014 11:08:15.851,-0.977,-1.202,1.126
12/17/2014 11:08:15.864,-0.947,-3,0.757
12/17/2014 11:08:15.877,-1.082,-3,0.982
12/17/2014 11:08:15.888,-1.006,-3,0.721
12/17/2014 11:08:15.901,-0.062,-3,-0.067
12/17/2014 11:08:15.914,0.716,-3,0.044
12/17/2014 11:08:15.927,1.091,-2.273,0.15
12/17/2014 11:08:15.938,1.522,-1.871,-0.308
12/17/2014 11:08:15.951,1.487,-1.704,-0.455
12/17/2014 11:08:15.963,0.833,-1.226,0.067
12/17/2014 11:08:15.976,-0.405,-0.103,0.302
12/17/2014 11:08:15.989,-0.677,0.416,0.038
12/17/2014 11:08:16.002,-0.809,0.578,0.22
12/17/2014 11:08:16.013,-1.021,1.255,0.249
12/17/2014 11:08:16.026,-1.003,1.736,0.106
12/17/2014 11:08:16.039,-0.727,1.569,0.085
12/17/2014 11:08:16.052,-0.144,1.065,0.152
12/17/2014 11:08:16.063,0.158,0.173,0.023
12/17/2014 11:08:16.076,0.235,-0.208,-0.053
12/17/2014 11:08:16.088,0.267,-0.073,-0.164
12/17/2014 11:08:16.101,0.05,-0.182,-0.109
12/17/2014 11:08:16.114,-0.076,-0.029,0.114
12/17/2014 11:08:16.127,-0.114,-0.088,-0.235
12/17/2014 11:08:16.138,0.692,-0.639,-0.167
12/17/2014 11:08:16.151,0.346,-1.106,-0.375
12/17/2014 11:08:16.164,-1.023,-1.557,-0.243
12/17/2014 11:08:16.177,-0.833,-2.085,0.129
12/17/2014 11:08:16.188,0.161,-3,0.469
12/17/2014 11:08:16.201,-0.129,-3,0.786
12/17/2014 11:08:16.213,-0.284,-2.205,0.525
12/17/2014 11:08:16.226,-0.569,-1.982,-0.032
12/17/2014 11:08:16.239,-0.37,-1.572,-0.437
12/17/2014 11:08:16.252,-0.029,-1.361,-0.455
12/17/2014 11:08:16.263,-0.375,-3,0.226
12/17/2014 11:08:16.276,0.188,-3,0.982
12/17/2014 11:08:16.289,0.622,-2.528,0.674
12/17/2014 11:08:16.302,0.425,-1.287,0.276
12/17/2014 11:08:16.313,-0.062,-0.455,0.126
12/17/2014 11:08:16.326,-0.012,-0.138,0.264
12/17/2014 11:08:16.338,-0.152,0.44,0.413
12/17/2014 11:08:16.351,-0.355,0.783,0.279
12/17/2014 11:08:16.364,-0.463,0.721,-0.067
12/17/2014 11:08:16.377,-0.232,0.328,-0.191
12/17/2014 11:08:16.388,0.035,0.196,-0.138
12/17/2014 11:08:16.401,0.123,0.299,-0.141
12/17/2014 11:08:16.414,0.059,0.249,-0.082
12/17/2014 11:08:16.427,-0.056,0.161,-0.009
12/17/2014 11:08:16.438,-0.299,0.056,0.041
12/17/2014 11:08:16.451,-0.402,-0.006,0.161
12/17/2014 11:08:16.463,-0.232,-0.065,0.328
12/17/2014 11:08:16.476,-0.551,-0.179,0.493
12/17/2014 11:08:16.489,-1.317,-0.935,0.581
12/17/2014 11:08:16.502,-1.587,-1.328,0.625
12/17/2014 11:08:16.513,-0.906,-1.871,0.716
12/17/2014 11:08:16.526,-0.707,-3,0.548
12/17/2014 11:08:16.539,-0.399,-3,0.692
12/17/2014 11:08:16.552,0.044,-3,0.32
12/17/2014 11:08:16.563,0.355,-3,0.179
12/17/2014 11:08:16.576,0.962,-2.384,0.07
12/17/2014 11:08:16.588,1.337,-1.997,-0.252
12/17/2014 11:08:16.601,1.141,-1.798,-0.314
12/17/2014 11:08:16.614,0.399,-1.27,-0.009
12/17/2014 11:08:16.627,-0.405,-0.032,0.22
12/17/2014 11:08:16.638,-0.721,0.449,0.323
12/17/2014 11:08:16.651,-0.988,0.592,0.302
12/17/2014 11:08:16.664,-1.141,0.938,0.317
12/17/2014 11:08:16.677,-0.83,1.472,0.261
12/17/2014 11:08:16.688,-0.311,1.402,0.299
12/17/2014 11:08:16.701,0.015,1.053,0.443
12/17/2014 11:08:16.713,0.05,0.173,0.018
12/17/2014 11:08:16.726,0.267,-0.326,-0.109
12/17/2014 11:08:16.739,0.317,-0.106,-0.238
12/17/2014 11:08:16.752,0.196,-0.006,-0.37
12/17/2014 11:08:16.763,0.123,0.088,-0.152
12/17/2014 11:08:16.776,0.205,-0.094,-0.276
12/17/2014 11:08:16.789,0.217,-0.457,-0.29
12/17/2014 11:08:16.802,-0.73,-1.481,-0.223
12/17/2014 11:08:16.813,-0.566,-2.584,-0.217
12/17/2014 11:08:16.826,0.381,-3,0.334
12/17/2014 11:08:16.838,0.267,-2.906,0.349
12/17/2014 11:08:16.851,0.044,-2.413,0.569
12/17/2014 11:08:16.864,-0.37,-2.079,0.308
12/17/2014 11:08:16.877,-0.592,-1.894,-0.041
12/17/2014 11:08:16.888,-0.683,-1.792,-0.211
12/17/2014 11:08:16.901,-0.771,-2.666,0.088
12/17/2014 11:08:16.914,-0.27,-2.965,0.44
12/17/2014 11:08:16.927,0.551,-2.642,0.478
12/17/2014 11:08:16.938,0.548,-1.909,0.29
12/17/2014 11:08:16.951,0.413,-0.965,0.085
12/17/2014 11:08:16.963,0.088,-0.361,0.111
12/17/2014 11:08:16.976,0.05,-0.085,0.287
12/17/2014 11:08:16.989,-0.091,0.636,0.299
12/17/2014 11:08:17.002,-0.287,1.308,0.147
12/17/2014 11:08:17.013,-0.387,1.141,0.018
12/17/2014 11:08:17.026,-0.296,0.308,-0.123
12/17/2014 11:08:17.039,-0.103,-0.041,-0.126
12/17/2014 11:08:17.052,0.003,-0.041,-0.126
12/17/2014 11:08:17.063,-0.073,0.123,-0.123
12/17/2014 11:08:17.076,-0.176,0.179,0.041
12/17/2014 11:08:17.088,-0.282,0.059,0.12
12/17/2014 11:08:17.101,-0.469,-0.079,0.161
12/17/2014 11:08:17.114,-0.381,-0.176,0.34
12/17/2014 11:08:17.127,-0.569,-0.161,0.575
12/17/2014 11:08:17.138,-1.24,-0.716,0.718
12/17/2014 11:08:17.151,-1.595,-1.323,0.979
12/17/2014 11:08:17.164,-1.428,-1.654,1.114
12/17/2014 11:08:17.177,-1.182,-2.982,0.651
12/17/2014 11:08:17.188,-0.88,-3,0.355
12/17/2014 11:08:17.201,-0.443,-3,0.399
12/17/2014 11:08:17.213,0.745,-3,0.044
12/17/2014 11:08:17.226,1.437,-3,-0.018
12/17/2014 11:08:17.239,1.343,-2.235,0.023
12/17/2014 11:08:17.252,1.276,-1.654,-0.1
12/17/2014 11:08:17.263,0.76,-1.516,-0.018
12/17/2014 11:08:17.276,-0.135,-0.933,0.267
12/17/2014 11:08:17.289,-0.774,-0.05,0.194
12/17/2014 11:08:17.302,-1.076,0.56,0.073
12/17/2014 11:08:17.313,-1.199,0.736,0.252
12/17/2014 11:08:17.326,-0.938,0.947,0.358
12/17/2014 11:08:17.338,-0.548,1.32,0.308
12/17/2014 11:08:17.351,-0.217,1.226,0.343
12/17/2014 11:08:17.364,0.015,0.924,0.331
12/17/2014 11:08:17.377,0.179,0.05,-0.073
12/17/2014 11:08:17.388,0.264,-0.276,-0.167
12/17/2014 11:08:17.401,0.346,0.032,-0.246
12/17/2014 11:08:17.414,0.279,0.261,-0.34
12/17/2014 11:08:17.427,0.158,0.073,-0.182
12/17/2014 11:08:17.438,0.581,-0.164,-0.235
12/17/2014 11:08:17.451,0,-0.657,-0.249
12/17/2014 11:08:17.463,-1.1,-1.76,-0.422
12/17/2014 11:08:17.476,-0.68,-2.891,-0.155
12/17/2014 11:08:17.489,0.276,-3,0.551
12/17/2014 11:08:17.502,0.026,-2.918,0.493
12/17/2014 11:08:17.513,-0.202,-2.24,0.431
12/17/2014 11:08:17.526,-0.557,-1.927,0.003
12/17/2014 11:08:17.539,-0.581,-1.71,-0.349
12/17/2014 11:08:17.552,-0.449,-1.941,-0.37
12/17/2014 11:08:17.563,-0.361,-2.683,0.12
12/17/2014 11:08:17.576,0.246,-3,0.639
12/17/2014 11:08:17.588,0.739,-2.507,0.499
12/17/2014 11:08:17.601,0.607,-1.616,0.264
12/17/2014 11:08:17.614,0.296,-0.604,0.111
12/17/2014 11:08:17.627,-0.138,-0.226,0.299
12/17/2014 11:08:17.638,-0.249,0.088,0.513
12/17/2014 11:08:17.651,-0.343,0.859,0.361
12/17/2014 11:08:17.664,-0.443,1.279,0.003
12/17/2014 11:08:17.677,-0.416,0.754,-0.164
12/17/2014 11:08:17.688,-0.164,0.056,-0.126
12/17/2014 11:08:17.701,-0.012,-0.012,-0.106
12/17/2014 11:08:17.713,-0.088,0.182,-0.079
12/17/2014 11:08:17.726,-0.235,0.276,0.059
12/17/2014 11:08:17.739,-0.346,0.22,0.129
12/17/2014 11:08:17.752,-0.507,0.073,0.147
12/17/2014 11:08:17.763,-0.472,-0.132,0.267
12/17/2014 11:08:17.776,-0.328,-0.117,0.487
12/17/2014 11:08:17.789,-0.721,-0.361,0.578
12/17/2014 11:08:17.802,-1.375,-1.067,0.645
12/17/2014 11:08:17.813,-1.51,-1.543,0.824
12/17/2014 11:08:17.826,-1.012,-2.088,0.625
12/17/2014 11:08:17.838,-0.531,-3,0.194
12/17/2014 11:08:17.851,-0.117,-3,0.557
12/17/2014 11:08:17.864,0.648,-3,0.305
12/17/2014 11:08:17.877,0.862,-3,0.205
12/17/2014 11:08:17.888,1.067,-2.37,0.015
12/17/2014 11:08:17.901,1.196,-1.862,-0.252
12/17/2014 11:08:17.914,0.721,-1.701,-0.243
12/17/2014 11:08:17.927,-0.085,-0.962,0.097
12/17/2014 11:08:17.938,-0.657,-0.032,0.384
12/17/2014 11:08:17.951,-0.947,0.405,0.226
12/17/2014 11:08:17.963,-1.217,0.727,0.232
12/17/2014 11:08:17.976,-1.056,1.097,0.308
12/17/2014 11:08:17.989,-0.56,1.481,0.226
12/17/2014 11:08:18.002,-0.12,1.273,0.252
12/17/2014 11:08:18.013,0.12,0.979,0.405
12/17/2014 11:08:18.026,0.158,0.249,0.07
12/17/2014 11:08:18.039,0.337,-0.246,-0.135
12/17/2014 11:08:18.052,0.311,-0.106,-0.211
12/17/2014 11:08:18.063,0.188,0.088,-0.375
12/17/2014 11:08:18.076,0.079,0.106,-0.176
12/17/2014 11:08:18.088,0.106,-0.287,-0.29
12/17/2014 11:08:18.101,0.507,-0.795,-0.355
12/17/2014 11:08:18.114,-0.37,-1.255,-0.334
12/17/2014 11:08:18.127,-1.17,-1.941,-0.258
12/17/2014 11:08:18.138,-0.39,-3,0.141
12/17/2014 11:08:18.151,0.12,-3,0.768
12/17/2014 11:08:18.164,-0.065,-2.801,0.645
12/17/2014 11:08:18.177,-0.094,-2.217,0.135
12/17/2014 11:08:18.188,-0.238,-1.886,-0.196
12/17/2014 11:08:18.201,-0.205,-1.66,-0.37
12/17/2014 11:08:18.213,0.032,-1.944,-0.276
12/17/2014 11:08:18.226,-0.1,-3,0.416
12/17/2014 11:08:18.239,0.179,-2.991,0.716
12/17/2014 11:08:18.252,0.059,-1.551,0.44
12/17/2014 11:08:18.263,-0.352,-0.9,0.238
12/17/2014 11:08:18.276,-0.317,-0.469,0.34
12/17/2014 11:08:18.289,0.029,0.129,0.443
12/17/2014 11:08:18.302,0.164,0.856,0.15
12/17/2014 11:08:18.313,-0.044,1.129,-0.073
12/17/2014 11:08:18.326,-0.267,0.848,-0.211
12/17/2014 11:08:18.338,-0.194,0.337,-0.305
12/17/2014 11:08:18.351,0.018,0.021,-0.196
12/17/2014 11:08:18.364,-0.029,0.044,-0.12
12/17/2014 11:08:18.377,-0.176,0.179,0.038
12/17/2014 11:08:18.388,-0.24,0.167,0.155
12/17/2014 11:08:18.401,-0.299,0.035,0.208
12/17/2014 11:08:18.414,-0.337,-0.091,0.361
12/17/2014 11:08:18.427,-0.158,-0.147,0.54
12/17/2014 11:08:18.438,-0.302,-0.094,0.551
12/17/2014 11:08:18.451,-1.032,-0.619,0.633
12/17/2014 11:08:18.463,-1.88,-1.452,0.833
12/17/2014 11:08:18.476,-2.138,-1.871,1.006
12/17/2014 11:08:18.489,-1.361,-2.789,0.323
12/17/2014 11:08:18.502,-0.551,-3,0.243
12/17/2014 11:08:18.513,0.032,-3,0.548
12/17/2014 11:08:18.526,1.003,-3,0.528
12/17/2014 11:08:18.539,1.199,-2.947,0.349
12/17/2014 11:08:18.552,1.323,-2.032,-0.126
12/17/2014 11:08:18.563,1.035,-1.328,-0.51
12/17/2014 11:08:18.576,0.308,-0.355,-0.455
12/17/2014 11:08:18.588,0.012,0.164,-0.059
12/17/2014 11:08:18.601,-0.493,0.205,-0.065
12/17/2014 11:08:18.614,-1.032,0.381,0.167
12/17/2014 11:08:18.627,-0.997,0.73,0.232
12/17/2014 11:08:18.638,-0.68,1.041,0.208
12/17/2014 11:08:18.651,-0.513,1.123,0.29
12/17/2014 11:08:18.664,-0.384,1.12,0.343
12/17/2014 11:08:18.677,-0.1,0.68,0.217
12/17/2014 11:08:18.688,0.003,0.114,-0.12
12/17/2014 11:08:18.701,0.059,-0.202,-0.208
12/17/2014 11:08:18.713,0.161,0.094,-0.15
12/17/2014 11:08:18.726,0.029,0.114,0.026
12/17/2014 11:08:18.739,0.27,-0.355,-0.088
12/17/2014 11:08:18.752,0.346,-0.909,-0.226
12/17/2014 11:08:18.763,-0.299,-1.358,-0.317
12/17/2014 11:08:18.776,-0.261,-1.877,-0.346
12/17/2014 11:08:18.789,0.531,-2.9,-0.328
12/17/2014 11:08:18.802,0.076,-2.795,0.381
12/17/2014 11:08:18.813,-0.279,-2.54,0.616
12/17/2014 11:08:18.826,-0.405,-2.384,0.346
12/17/2014 11:08:18.838,-0.672,-1.921,-0.179
12/17/2014 11:08:18.851,-0.592,-1.566,-0.46
12/17/2014 11:08:18.864,-0.164,-2.666,-0.015
12/17/2014 11:08:18.877,0.543,-3,0.815
12/17/2014 11:08:18.888,0.639,-2.428,0.528
12/17/2014 11:08:18.901,0.208,-1.226,0.372
12/17/2014 11:08:18.914,-0.223,-0.845,0.487
12/17/2014 11:08:18.927,-0.223,-0.249,0.663
12/17/2014 11:08:18.938,-0.293,0.575,0.381
12/17/2014 11:08:18.951,-0.499,1.12,-0.141
12/17/2014 11:08:18.963,-0.625,1.176,-0.22
12/17/2014 11:08:18.976,-0.578,0.771,-0.287
12/17/2014 11:08:18.989,-0.158,0.191,-0.135
12/17/2014 11:08:19.002,0.196,0.232,-0.05
12/17/2014 11:08:19.013,0.37,0.299,0.015
12/17/2014 11:08:19.026,0.226,0.191,0.194
12/17/2014 11:08:19.039,-0.238,-0.15,0.29
12/17/2014 11:08:19.052,-0.68,-0.557,0.443
12/17/2014 11:08:19.063,-0.865,-0.604,0.786
12/17/2014 11:08:19.076,-1.367,-0.801,0.915
12/17/2014 11:08:19.088,-1.748,-1.255,1.173
12/17/2014 11:08:19.101,-1.733,-1.323,1.053
12/17/2014 11:08:19.114,-1.22,-2.449,0.616
12/17/2014 11:08:19.127,-0.812,-3,0.287
12/17/2014 11:08:19.138,-0.317,-3,0.437
12/17/2014 11:08:19.151,0.516,-3,0.097
12/17/2014 11:08:19.164,0.965,-3,0.082
12/17/2014 11:08:19.177,1.132,-2.147,0.026
12/17/2014 11:08:19.188,1.32,-1.856,-0.264
12/17/2014 11:08:19.201,0.795,-1.411,-0.279
12/17/2014 11:08:19.213,0.252,-0.528,0.273
12/17/2014 11:08:19.226,-0.129,-0.352,0.097
12/17/2014 11:08:19.239,-0.809,0.455,-0.109
12/17/2014 11:08:19.252,-1.114,1.056,0.202
12/17/2014 11:08:19.263,-1.012,1.422,0.135
12/17/2014 11:08:19.276,-0.636,1.501,0.073
12/17/2014 11:08:19.289,-0.196,1.111,0.396
12/17/2014 11:08:19.302,-0.047,0.774,0.469
12/17/2014 11:08:19.313,-0.123,-0.188,-0.067
12/17/2014 11:08:19.326,0.176,-0.413,-0.085
12/17/2014 11:08:19.338,0.138,-0.138,-0.243
12/17/2014 11:08:19.351,0.132,0.314,-0.246
12/17/2014 11:08:19.364,0.12,0.176,-0.179
12/17/2014 11:08:19.377,0.537,-0.109,-0.243
12/17/2014 11:08:19.388,-0.056,-0.651,-0.293
12/17/2014 11:08:19.401,-1.109,-1.721,-0.334
12/17/2014 11:08:19.414,-0.874,-2.865,-0.208
12/17/2014 11:08:19.427,0.103,-3,0.604
12/17/2014 11:08:19.438,0.217,-2.938,0.411
12/17/2014 11:08:19.451,-0.029,-2.331,0.317
12/17/2014 11:08:19.463,-0.411,-1.924,-0.015
12/17/2014 11:08:19.476,-0.633,-1.496,-0.39
12/17/2014 11:08:19.489,-0.584,-1.792,-0.399
12/17/2014 11:08:19.502,-0.1,-3,0.528
12/17/2014 11:08:19.513,0.405,-2.962,0.61
12/17/2014 11:08:19.526,0.513,-2.135,0.361
12/17/2014 11:08:19.539,0.287,-1.182,0.399
12/17/2014 11:08:19.552,-0.091,-0.507,0.416
12/17/2014 11:08:19.563,-0.308,0.103,0.472
12/17/2014 11:08:19.576,-0.296,0.798,0.223
12/17/2014 11:08:19.588,-0.396,1.279,-0.018
12/17/2014 11:08:19.601,-0.446,1.032,-0.032
12/17/2014 11:08:19.614,-0.431,0.343,-0.106
12/17/2014 11:08:19.627,-0.191,0.094,-0.109
12/17/2014 11:08:19.638,-0.006,0.176,-0.097
12/17/2014 11:08:19.651,0.035,0.226,-0.082
12/17/2014 11:08:19.664,-0.015,0.211,0.109
12/17/2014 11:08:19.677,-0.161,0.012,0.261
12/17/2014 11:08:19.688,-0.49,-0.208,0.328
12/17/2014 11:08:19.701,-0.531,-0.434,0.455
12/17/2014 11:08:19.713,-0.372,-0.328,0.507
12/17/2014 11:08:19.726,-0.921,-0.513,0.537
12/17/2014 11:08:19.739,-1.61,-1.191,0.894
12/17/2014 11:08:19.752,-1.821,-1.481,1.091
12/17/2014 11:08:19.763,-1.012,-2.208,0.645
12/17/2014 11:08:19.776,-0.625,-3,-0.194
12/17/2014 11:08:19.789,-0.367,-3,0.111
12/17/2014 11:08:19.802,0.628,-3,0.314
12/17/2014 11:08:19.813,1.361,-3,0.264
12/17/2014 11:08:19.826,1.393,-2.293,-0.155
12/17/2014 11:08:19.838,1.006,-1.721,-0.22
12/17/2014 11:08:19.851,0.106,-1.038,-0.176
12/17/2014 11:08:19.864,-0.226,-0.361,0.358
12/17/2014 11:08:19.877,-0.619,-0.059,0.217
12/17/2014 11:08:19.888,-0.974,0.44,0.05
12/17/2014 11:08:19.901,-0.947,0.848,0.279
12/17/2014 11:08:19.914,-0.657,1.361,0.123
12/17/2014 11:08:19.927,-0.279,1.466,0.194
12/17/2014 11:08:19.938,-0.147,1.472,0.372
12/17/2014 11:08:19.951,0.032,0.889,0.211
12/17/2014 11:08:19.963,0.041,0.123,-0.123
12/17/2014 11:08:19.976,0.211,-0.208,-0.129
12/17/2014 11:08:19.989,0.261,-0.132,-0.331
12/17/2014 11:08:20.002,-0.088,0.235,-0.07
12/17/2014 11:08:20.013,-0.287,-0.147,-0.152
12/17/2014 11:08:20.026,0.029,-0.903,-0.273
12/17/2014 11:08:20.039,-0.484,-1.628,-0.179
12/17/2014 11:08:20.052,-0.507,-2.194,-0.079
12/17/2014 11:08:20.063,0.683,-3,-0.114
12/17/2014 11:08:20.076,0.889,-2.625,0.22
12/17/2014 11:08:20.088,0.276,-2.343,0.416
12/17/2014 11:08:20.101,-0.088,-2.144,0.46
12/17/2014 11:08:20.114,-0.308,-2.003,0.249
12/17/2014 11:08:20.127,-0.607,-1.613,-0.176
12/17/2014 11:08:20.138,-0.824,-1.768,-0.202
12/17/2014 11:08:20.151,-0.736,-2.891,0.416
12/17/2014 11:08:20.164,0.1,-2.789,0.83
12/17/2014 11:08:20.177,0.493,-2.109,0.364
12/17/2014 11:08:20.188,0.384,-1.293,0.176
12/17/2014 11:08:20.201,-0.208,-0.751,0.39
12/17/2014 11:08:20.213,-0.343,-0.284,0.595
12/17/2014 11:08:20.226,-0.34,0.56,0.487
12/17/2014 11:08:20.239,-0.331,1.217,0.065
12/17/2014 11:08:20.252,-0.402,1.185,-0.238
12/17/2014 11:08:20.263,-0.355,0.68,-0.317
12/17/2014 11:08:20.276,0,0.308,-0.194
12/17/2014 11:08:20.289,0.179,0.317,-0.135
12/17/2014 11:08:20.302,0.15,0.355,-0.079
12/17/2014 11:08:20.313,-0.059,0.188,0.191
12/17/2014 11:08:20.326,-0.507,-0.021,0.273
12/17/2014 11:08:20.338,-0.757,-0.293,0.299
12/17/2014 11:08:20.351,-0.663,-0.411,0.513
12/17/2014 11:08:20.364,-0.959,-0.692,0.692
12/17/2014 11:08:20.377,-1.422,-1.434,0.9
12/17/2014 11:08:20.388,-1.284,-1.677,0.909
12/17/2014 11:08:20.401,-0.592,-2.355,0.63
12/17/2014 11:08:20.414,-0.396,-3,0.126
12/17/2014 11:08:20.427,-0.372,-3,0.264
12/17/2014 11:08:20.438,0.522,-3,0.044
12/17/2014 11:08:20.451,1.24,-3,-0.032
12/17/2014 11:08:20.463,1.346,-2.493,0.026
12/17/2014 11:08:20.476,0.842,-1.587,-0.135
12/17/2014 11:08:20.489,0.217,-1.202,-0.164
12/17/2014 11:08:20.502,-0.513,-0.716,-0.065
12/17/2014 11:08:20.513,-0.886,-0.065,0.023
12/17/2014 11:08:20.526,-0.982,0.337,0.111
12/17/2014 11:08:20.539,-0.935,0.842,0.167
12/17/2014 11:08:20.552,-0.842,1.413,0.223
12/17/2014 11:08:20.563,-0.475,1.334,0.334
12/17/2014 11:08:20.576,-0.208,1.082,0.625
12/17/2014 11:08:20.588,0.041,0.739,0.437
12/17/2014 11:08:20.601,0.094,-0.029,-0.123
12/17/2014 11:08:20.614,0.551,-0.073,-0.176
12/17/2014 11:08:20.627,0.399,-0.018,-0.305
12/17/2014 11:08:20.638,0.238,0.232,0.126
12/17/2014 11:08:20.651,0.044,0.056,-0.059
12/17/2014 11:08:20.664,0.39,-0.557,-0.176
12/17/2014 11:08:20.677,0.073,-1.185,-0.323
12/17/2014 11:08:20.688,-1.29,-1.707,-0.387
12/17/2014 11:08:20.701,-1.076,-2.534,-0.194
12/17/2014 11:08:20.713,0.018,-2.894,0.39
12/17/2014 11:08:20.726,-0.003,-2.648,0.317
12/17/2014 11:08:20.739,0.021,-2.472,0.413
12/17/2014 11:08:20.752,-0.226,-2.457,0.152
12/17/2014 11:08:20.763,-0.384,-1.968,-0.276
12/17/2014 11:08:20.776,-0.158,-1.499,-0.581
12/17/2014 11:08:20.789,0.1,-2.34,-0.129
12/17/2014 11:08:20.802,0.455,-3,0.689
12/17/2014 11:08:20.813,0.566,-2.677,0.484
12/17/2014 11:08:20.826,0.416,-1.396,0.437
12/17/2014 11:08:20.838,-0.173,-0.742,0.358
12/17/2014 11:08:20.851,-0.308,-0.132,0.46
12/17/2014 11:08:20.864,-0.355,0.754,0.22
12/17/2014 11:08:20.877,-0.416,1.144,-0.079
12/17/2014 11:08:20.888,-0.425,1.079,-0.07
12/17/2014 11:08:20.901,-0.323,0.698,-0.182
12/17/2014 11:08:20.914,-0.026,0.405,-0.191
12/17/2014 11:08:20.927,0.07,0.381,-0.126
12/17/2014 11:08:20.938,-0.015,0.311,-0.026
12/17/2014 11:08:20.951,-0.167,0.12,0.232
12/17/2014 11:08:20.963,-0.455,-0.062,0.276
12/17/2014 11:08:20.976,-0.633,-0.249,0.287
12/17/2014 11:08:20.989,-0.478,-0.399,0.496
12/17/2014 11:08:21.002,-0.569,-0.284,0.604
12/17/2014 11:08:21.013,-1.235,-0.707,0.666
12/17/2014 11:08:21.026,-1.804,-1.32,0.894
12/17/2014 11:08:21.039,-1.669,-1.434,1.05
12/17/2014 11:08:21.052,-0.935,-2.428,0.598
12/17/2014 11:08:21.063,-0.545,-3,-0.038
12/17/2014 11:08:21.076,-0.144,-3,0.1
12/17/2014 11:08:21.088,1.023,-3,0.273
12/17/2014 11:08:21.101,1.73,-3,0.182
12/17/2014 11:08:21.114,1.798,-2.449,-0.258
12/17/2014 11:08:21.127,1.126,-1.894,-0.276
12/17/2014 11:08:21.138,0.129,-1.199,-0.079
12/17/2014 11:08:21.151,-0.522,-0.563,0.109
12/17/2014 11:08:21.164,-0.751,-0.103,0.287
12/17/2014 11:08:21.177,-0.924,0.472,0.179
12/17/2014 11:08:21.188,-0.968,1.041,0.217
12/17/2014 11:08:21.201,-0.804,1.513,0.106
12/17/2014 11:08:21.213,-0.504,1.501,0.164
12/17/2014 11:08:21.226,-0.261,1.408,0.446
12/17/2014 11:08:21.239,-0.044,1.006,0.328
12/17/2014 11:08:21.252,-0.035,0.132,-0.032
12/17/2014 11:08:21.263,0.279,-0.431,-0.065
12/17/2014 11:08:21.276,0.314,-0.308,-0.155
12/17/2014 11:08:21.289,-0.026,0.032,0.05
12/17/2014 11:08:21.302,-0.358,0.238,0.032
12/17/2014 11:08:21.313,-0.117,-0.507,-0.167
12/17/2014 11:08:21.326,0.07,-1.328,-0.211
12/17/2014 11:08:21.338,-0.636,-1.739,-0.111
12/17/2014 11:08:21.351,-0.211,-2.279,0.138
12/17/2014 11:08:21.364,0.683,-2.915,-0.097
12/17/2014 11:08:21.377,0.584,-2.657,0.422
12/17/2014 11:08:21.388,0.314,-2.44,0.425
12/17/2014 11:08:21.401,-0.07,-2.282,0.252
12/17/2014 11:08:21.414,-0.475,-1.836,-0.205
12/17/2014 11:08:21.427,-0.534,-1.736,-0.32
12/17/2014 11:08:21.438,-0.091,-2.991,0.194
12/17/2014 11:08:21.451,0.68,-3,0.927
12/17/2014 11:08:21.463,0.771,-2.419,0.507
12/17/2014 11:08:21.476,0.405,-1.264,0.246
12/17/2014 11:08:21.489,0.026,-0.874,0.252
12/17/2014 11:08:21.502,-0.173,-0.261,0.513
12/17/2014 11:08:21.513,-0.396,0.633,0.51
12/17/2014 11:08:21.526,-0.537,1.217,0.135
12/17/2014 11:08:21.539,-0.677,1.158,-0.044
12/17/2014 11:08:21.552,-0.648,0.677,-0.135
12/17/2014 11:08:21.563,-0.299,0.311,-0.126
12/17/2014 11:08:21.576,-0.1,0.372,-0.15
12/17/2014 11:08:21.588,-0.05,0.396,-0.152
12/17/2014 11:08:21.601,-0.094,0.299,0.065
12/17/2014 11:08:21.614,-0.302,0.065,0.194
12/17/2014 11:08:21.627,-0.569,-0.088,0.22
12/17/2014 11:08:21.638,-0.49,-0.249,0.37
12/17/2014 11:08:21.651,-0.516,-0.299,0.598
12/17/2014 11:08:21.664,-1.079,-0.918,0.727
12/17/2014 11:08:21.677,-1.434,-1.595,0.853
12/17/2014 11:08:21.688,-0.804,-1.938,0.692
12/17/2014 11:08:21.701,-0.279,-3,0.208
12/17/2014 11:08:21.713,-0.194,-3,0.308
12/17/2014 11:08:21.726,0.425,-3,0.499
12/17/2014 11:08:21.739,0.774,-3,0.387
12/17/2014 11:08:21.752,1.12,-2.648,0.226
12/17/2014 11:08:21.763,0.95,-1.795,-0.185
12/17/2014 11:08:21.776,0.337,-1.393,-0.384
12/17/2014 11:08:21.789,-0.352,-0.959,-0.191
12/17/2014 11:08:21.802,-0.68,-0.387,0.416
12/17/2014 11:08:21.813,-0.815,0.15,0.293
12/17/2014 11:08:21.826,-0.818,0.757,0.138
12/17/2014 11:08:21.838,-0.839,1.419,0.05
12/17/2014 11:08:21.851,-0.449,1.598,0.009
12/17/2014 11:08:21.864,-0.056,1.299,0.293
12/17/2014 11:08:21.877,0.026,1.035,0.519
12/17/2014 11:08:21.888,0.091,0.543,0.205
12/17/2014 11:08:21.901,0.044,-0.282,-0.147
12/17/2014 11:08:21.914,0.217,-0.282,-0.015
12/17/2014 11:08:21.927,0.006,-0.238,-0.079
12/17/2014 11:08:21.938,-0.179,0.035,-0.05
12/17/2014 11:08:21.951,-0.352,0.085,-0.088
12/17/2014 11:08:21.963,0.032,-0.592,-0.106
12/17/2014 11:08:21.976,0.284,-1.235,-0.17
12/17/2014 11:08:21.989,-0.581,-1.522,-0.217
12/17/2014 11:08:22.002,-0.472,-2.05,0.038
12/17/2014 11:08:22.013,0.698,-2.672,-0.141
12/17/2014 11:08:22.026,0.783,-2.95,0.452
12/17/2014 11:08:22.039,0.411,-2.551,0.522
12/17/2014 11:08:22.052,0.076,-2.372,0.384
12/17/2014 11:08:22.063,-0.449,-1.991,0.015
12/17/2014 11:08:22.076,-0.267,-1.604,-0.276
12/17/2014 11:08:22.088,-0.094,-3,0.308
12/17/2014 11:08:22.101,0.314,-3,0.736
12/17/2014 11:08:22.114,0.443,-1.707,0.422
12/17/2014 11:08:22.127,0.047,-1.021,0.305
12/17/2014 11:08:22.138,-0.158,-0.493,0.457
12/17/2014 11:08:22.151,-0.284,0.161,0.61
12/17/2014 11:08:22.164,-0.343,0.859,0.484
12/17/2014 11:08:22.177,-0.484,1.141,0.111
12/17/2014 11:08:22.188,-0.654,0.938,-0.205
12/17/2014 11:08:22.201,-0.416,0.501,-0.191
12/17/2014 11:08:22.213,-0.232,0.384,-0.041
12/17/2014 11:08:22.226,-0.173,0.557,-0.023
12/17/2014 11:08:22.239,-0.205,0.519,0.123
12/17/2014 11:08:22.252,-0.361,0.302,0.235
12/17/2014 11:08:22.263,-0.551,-0.044,0.264
12/17/2014 11:08:22.276,-0.478,-0.425,0.399
12/17/2014 11:08:22.289,-0.61,-0.595,0.569
12/17/2014 11:08:22.302,-1.141,-1.205,0.578
12/17/2014 11:08:22.313,-1.287,-1.545,0.733
12/17/2014 11:08:22.326,-0.194,-1.944,0.287
12/17/2014 11:08:22.338,0.478,-3,-0.581
12/17/2014 11:08:22.351,0.768,-3,0.416
12/17/2014 11:08:22.364,1.372,-3,1.094
12/17/2014 11:08:22.377,1.038,-3,0.39
12/17/2014 11:08:22.388,0.543,-1.833,-0.211
12/17/2014 11:08:22.401,-0.047,-1.173,-0.314
12/17/2014 11:08:22.414,-0.39,-0.894,-0.331
12/17/2014 11:08:22.427,-0.85,-0.158,0.088
12/17/2014 11:08:22.438,-0.994,-0.015,0.478
12/17/2014 11:08:22.451,-0.812,0.152,0.425
12/17/2014 11:08:22.463,-0.845,0.739,0.396
12/17/2014 11:08:22.476,-0.581,1.29,0.141
12/17/2014 11:08:22.489,-0.123,1.367,0.217
12/17/2014 11:08:22.502,0.073,1.24,0.534
12/17/2014 11:08:22.513,0.065,0.745,0.232
12/17/2014 11:08:22.526,-0.062,0,-0.164
12/17/2014 11:08:22.539,0.094,0.094,0.012
12/17/2014 11:08:22.552,-0.029,0,-0.012
12/17/2014 11:08:22.563,-0.34,0.337,0.053
12/17/2014 11:08:22.576,-0.493,-0.279,-0.082
12/17/2014 11:08:22.588,-0.24,-1.255,-0.079
12/17/2014 11:08:22.601,-0.592,-1.754,0.147
12/17/2014 11:08:22.614,-0.534,-2.079,0.12
12/17/2014 11:08:22.627,0.475,-2.24,-0.205
12/17/2014 11:08:22.638,0.698,-2.117,-0.252
12/17/2014 11:08:22.651,0.282,-2.085,0.023
12/17/2014 11:08:22.664,0.018,-2.282,0.243
12/17/2014 11:08:22.677,-0.411,-2.311,0.194
12/17/2014 11:08:22.688,-0.815,-2.018,-0.129
12/17/2014 11:08:22.701,-0.507,-2.642,0.059
12/17/2014 11:08:22.713,0.516,-3,0.707
12/17/2014 11:08:22.726,1.141,-3,0.563
12/17/2014 11:08:22.739,0.944,-1.886,0.155
12/17/2014 11:08:22.752,0.434,-0.994,0.314
12/17/2014 11:08:22.763,-0.012,-0.46,0.537
12/17/2014 11:08:22.776,-0.478,0.24,0.622
12/17/2014 11:08:22.789,-0.809,0.909,0.384
12/17/2014 11:08:22.802,-0.713,1.226,0.141
12/17/2014 11:08:22.813,-0.581,1.038,-0.056
12/17/2014 11:08:22.826,-0.343,0.384,-0.232
12/17/2014 11:08:22.838,-0.109,0.135,-0.208
12/17/2014 11:08:22.851,-0.029,0.158,-0.179
12/17/2014 11:08:22.864,-0.041,0.246,-0.126
12/17/2014 11:08:22.877,-0.088,0.249,0.161
12/17/2014 11:08:22.888,-0.279,0.059,0.211
12/17/2014 11:08:22.901,-0.516,-0.132,0.226
12/17/2014 11:08:22.914,-0.431,-0.24,0.46
12/17/2014 11:08:22.927,-0.701,-0.311,0.736
12/17/2014 11:08:22.938,-1.413,-1.082,0.798
12/17/2014 11:08:22.951,-1.349,-1.364,1.114
12/17/2014 11:08:22.963,-0.827,-1.824,0.871
12/17/2014 11:08:22.976,-0.979,-3,0.226
12/17/2014 11:08:22.989,-0.865,-3,0.012
12/17/2014 11:08:23.002,-0.223,-3,0.147
12/17/2014 11:08:23.013,0.886,-3,0.067
12/17/2014 11:08:23.026,1.367,-3,0.267
12/17/2014 11:08:23.039,1.22,-2.021,-0.258
12/17/2014 11:08:23.052,0.56,-1.346,-0.323
12/17/2014 11:08:23.063,-0.114,-0.924,-0.223
12/17/2014 11:08:23.076,-0.428,-0.716,0.284
12/17/2014 11:08:23.088,-0.672,-0.05,0.276
12/17/2014 11:08:23.101,-0.842,0.833,0.273
12/17/2014 11:08:23.114,-0.83,1.44,0.202
12/17/2014 11:08:23.127,-0.563,1.557,0.141
12/17/2014 11:08:23.138,-0.299,1.152,0.399
12/17/2014 11:08:23.151,-0.176,1.023,0.487
12/17/2014 11:08:23.164,-0.012,0.713,0.252
12/17/2014 11:08:23.177,-0.041,-0.252,-0.1
12/17/2014 11:08:23.188,0.164,-0.337,-0.053
12/17/2014 11:08:23.201,0.029,-0.267,-0.106
12/17/2014 11:08:23.213,-0.158,0.129,-0.012
12/17/2014 11:08:23.226,-0.34,0.167,-0.026
12/17/2014 11:08:23.239,0.135,-0.501,-0.164
12/17/2014 11:08:23.252,0.566,-1.161,-0.243
12/17/2014 11:08:23.263,-0.27,-1.22,-0.361
12/17/2014 11:08:23.276,-0.818,-1.754,-0.026
12/17/2014 11:08:23.289,-0.059,-2.446,-0.211
12/17/2014 11:08:23.302,0.513,-3,0.135
12/17/2014 11:08:23.313,0.328,-3,0.557
12/17/2014 11:08:23.326,0.088,-2.768,0.273
12/17/2014 11:08:23.338,-0.205,-2.346,-0.082
12/17/2014 11:08:23.351,0.07,-2.085,-0.29
12/17/2014 11:08:23.364,0.226,-3,-0.085
12/17/2014 11:08:23.377,0.636,-3,0.736
12/17/2014 11:08:23.388,0.522,-2.062,0.581
12/17/2014 11:08:23.401,0.091,-1.056,0.469
12/17/2014 11:08:23.414,-0.399,-0.625,0.63
12/17/2014 11:08:23.427,-0.651,0.07,0.894
12/17/2014 11:08:23.438,-0.666,0.848,0.484
12/17/2014 11:08:23.451,-0.633,1.173,-0.018
12/17/2014 11:08:23.463,-0.666,1.023,-0.252
12/17/2014 11:08:23.476,-0.402,0.49,-0.323
12/17/2014 11:08:23.489,-0.035,0.299,-0.191
12/17/2014 11:08:23.502,0.1,0.413,-0.176
12/17/2014 11:08:23.513,0.106,0.381,-0.038
12/17/2014 11:08:23.526,-0.018,0.176,0.185
12/17/2014 11:08:23.539,-0.235,-0.062,0.249
12/17/2014 11:08:23.552,-0.355,-0.264,0.358
12/17/2014 11:08:23.563,-0.158,-0.264,0.519
12/17/2014 11:08:23.576,-0.46,-0.284,0.633
12/17/2014 11:08:23.588,-1.211,-0.891,0.713
12/17/2014 11:08:23.601,-1.674,-1.452,0.912
12/17/2014 11:08:23.614,-1.182,-1.821,0.865
12/17/2014 11:08:23.627,-0.628,-3,0.015
12/17/2014 11:08:23.638,-0.636,-3,-0.305
12/17/2014 11:08:23.651,0.648,-3,0.487
12/17/2014 11:08:23.664,1.22,-3,0.501
12/17/2014 11:08:23.677,1.173,-2.487,-0.026
12/17/2014 11:08:23.688,0.642,-1.323,-0.308
12/17/2014 11:08:23.701,0.12,-0.944,-0.452
12/17/2014 11:08:23.713,-0.331,-0.657,-0.141
12/17/2014 11:08:23.726,-0.522,-0.232,0.334
12/17/2014 11:08:23.739,-0.613,0.208,0.308
12/17/2014 11:08:23.752,-0.818,0.815,0.246
12/17/2014 11:08:23.763,-0.768,1.158,0.226
12/17/2014 11:08:23.776,-0.478,1.176,0.258
12/17/2014 11:08:23.789,-0.384,1.109,0.39
12/17/2014 11:08:23.802,-0.264,1.023,0.293
12/17/2014 11:08:23.813,0.015,0.361,0.056
12/17/2014 11:08:23.826,0.138,-0.252,-0.106
12/17/2014 11:08:23.838,0.132,-0.12,-0.088
12/17/2014 11:08:23.851,0.044,0.372,0.129
12/17/2014 11:08:23.864,-0.176,0.103,-0.044
12/17/2014 11:08:23.877,0.161,-0.698,-0.164
12/17/2014 11:08:23.888,-0.091,-1.138,-0.208
12/17/2014 11:08:23.901,-0.721,-2.094,-0.067
12/17/2014 11:08:23.914,-0.059,-2.569,-0.302
12/17/2014 11:08:23.927,0.648,-2.531,0.018
12/17/2014 11:08:23.938,0.323,-2.355,0.129
12/17/2014 11:08:23.951,0.076,-2.504,0.364
12/17/2014 11:08:23.963,-0.323,-2.504,0.249
12/17/2014 11:08:23.976,-0.622,-2.1,-0.038
12/17/2014 11:08:23.989,-0.372,-2.592,-0.032
12/17/2014 11:08:24.002,0.194,-3,0.402
12/17/2014 11:08:24.013,0.988,-3,0.651
12/17/2014 11:08:24.026,0.754,-1.912,0.232
12/17/2014 11:08:24.039,0.396,-1.217,0.258
12/17/2014 11:08:24.052,0.041,-0.707,0.396
12/17/2014 11:08:24.063,-0.317,-0.015,0.557
12/17/2014 11:08:24.076,-0.683,0.842,0.331
12/17/2014 11:08:24.088,-0.648,1.299,0.05
12/17/2014 11:08:24.101,-0.68,1.273,-0.167
12/17/2014 11:08:24.114,-0.455,0.548,-0.235
12/17/2014 11:08:24.127,-0.129,0.196,-0.164
12/17/2014 11:08:24.138,-0.012,0.158,-0.111
12/17/2014 11:08:24.151,-0.021,0.24,-0.023
12/17/2014 11:08:24.164,-0.109,0.264,0.164
12/17/2014 11:08:24.177,-0.317,0.117,0.264
12/17/2014 11:08:24.188,-0.513,-0.138,0.372
12/17/2014 11:08:24.201,-0.413,-0.267,0.554
12/17/2014 11:08:24.213,-0.754,-0.361,0.695
12/17/2014 11:08:24.226,-1.469,-1.062,0.856
12/17/2014 11:08:24.239,-1.789,-1.364,1.182
12/17/2014 11:08:24.252,-1.258,-1.912,1.012
12/17/2014 11:08:24.263,-0.862,-3,0.129
12/17/2014 11:08:24.276,-0.639,-3,0.015
12/17/2014 11:08:24.289,0.021,-3,0.114
12/17/2014 11:08:24.302,0.997,-3,0.396
12/17/2014 11:08:24.313,1.126,-2.654,0.126
12/17/2014 11:08:24.326,0.947,-1.689,-0.381
12/17/2014 11:08:24.338,0.372,-1.038,-0.446
12/17/2014 11:08:24.351,0.1,-0.774,-0.223
12/17/2014 11:08:24.364,-0.182,-0.607,0.179
12/17/2014 11:08:24.377,-0.449,0.167,-0.026
12/17/2014 11:08:24.388,-0.61,0.801,0.232
12/17/2014 11:08:24.401,-0.721,1.305,0.279
12/17/2014 11:08:24.414,-0.622,1.346,0.191
12/17/2014 11:08:24.427,-0.402,1.032,0.413
12/17/2014 11:08:24.438,-0.34,0.962,0.422
12/17/2014 11:08:24.451,-0.196,0.516,0.147
12/17/2014 11:08:24.463,-0.147,-0.302,-0.114
12/17/2014 11:08:24.476,0,-0.194,-0.138
12/17/2014 11:08:24.489,-0.044,0.109,-0.05
12/17/2014 11:08:24.502,-0.173,0.252,-0.114
12/17/2014 11:08:24.513,0.238,-0.114,-0.208
12/17/2014 11:08:24.526,0.736,-0.768,-0.284
12/17/2014 11:08:24.539,-0.059,-1.085,-0.496
12/17/2014 11:08:24.552,-0.73,-1.95,-0.217
12/17/2014 11:08:24.563,0.226,-2.974,-0.208
12/17/2014 11:08:24.576,0.566,-3,0.625
12/17/2014 11:08:24.588,0.138,-2.809,0.721
12/17/2014 11:08:24.601,-0.22,-2.472,0.416
12/17/2014 11:08:24.614,-0.499,-2.021,-0.129
12/17/2014 11:08:24.627,-0.44,-1.642,-0.452
12/17/2014 11:08:24.638,-0.27,-2.595,-0.305
12/17/2014 11:08:24.651,0.22,-3,0.677
12/17/2014 11:08:24.664,0.56,-2.284,0.569
12/17/2014 11:08:24.677,0.425,-1.381,0.39
12/17/2014 11:08:24.688,-0.012,-0.716,0.425
12/17/2014 11:08:24.701,-0.323,-0.114,0.721
12/17/2014 11:08:24.713,-0.402,0.657,0.657
12/17/2014 11:08:24.726,-0.469,1.182,0.152
12/17/2014 11:08:24.739,-0.61,1.138,-0.164
12/17/2014 11:08:24.752,-0.504,0.613,-0.287
12/17/2014 11:08:24.763,-0.12,0.22,-0.123
12/17/2014 11:08:24.776,0.026,0.308,-0.141
12/17/2014 11:08:24.789,-0.018,0.446,-0.032
12/17/2014 11:08:24.802,-0.129,0.308,0.235
12/17/2014 11:08:24.813,-0.46,0.003,0.261
12/17/2014 11:08:24.826,-0.622,-0.252,0.364
12/17/2014 11:08:24.838,-0.434,-0.37,0.522
12/17/2014 11:08:24.851,-0.818,-0.463,0.619
12/17/2014 11:08:24.864,-1.633,-1.202,0.721
12/17/2014 11:08:24.877,-1.654,-1.528,1.029
12/17/2014 11:08:24.888,-0.698,-2.217,0.569
12/17/2014 11:08:24.901,-0.191,-3,-0.226
12/17/2014 11:08:24.914,-0.132,-3,0.152
12/17/2014 11:08:24.927,0.528,-3,0.349
12/17/2014 11:08:24.938,0.997,-3,0.238
12/17/2014 11:08:24.951,0.991,-1.877,-0.088
12/17/2014 11:08:24.963,0.581,-1.191,-0.428
12/17/2014 11:08:24.976,-0.07,-0.786,-0.472
12/17/2014 11:08:24.989,-0.372,-0.551,-0.164
12/17/2014 11:08:25.002,-0.622,-0.202,0.226
12/17/2014 11:08:25.013,-0.443,0.361,0.299
12/17/2014 11:08:25.026,-0.513,0.877,0.249
12/17/2014 11:08:25.039,-0.513,1.358,0.038
12/17/2014 11:08:25.052,-0.249,1.246,0.141
12/17/2014 11:08:25.063,-0.085,1.035,0.446
12/17/2014 11:08:25.076,-0.029,0.827,0.308
12/17/2014 11:08:25.088,-0.194,0.117,-0.12
12/17/2014 11:08:25.101,-0.018,-0.12,-0.097
12/17/2014 11:08:25.114,-0.085,-0.226,-0.109
12/17/2014 11:08:25.127,-0.205,0.194,0.114
12/17/2014 11:08:25.138,-0.405,0.079,-0.015
12/17/2014 11:08:25.151,0.006,-0.713,-0.164
12/17/2014 11:08:25.164,-0.029,-1.255,-0.29
12/17/2014 11:08:25.177,-0.701,-1.672,-0.073
12/17/2014 11:08:25.188,0.117,-2.358,-0.067
12/17/2014 11:08:25.201,0.982,-2.83,-0.123
12/17/2014 11:08:25.213,0.522,-2.405,0.226
12/17/2014 11:08:25.226,0.202,-2.34,0.364
12/17/2014 11:08:25.239,-0.164,-2.311,0.164
12/17/2014 11:08:25.252,-0.581,-1.76,-0.1
12/17/2014 11:08:25.263,-0.548,-1.906,-0.293
12/17/2014 11:08:25.276,-0.003,-3,0.276
12/17/2014 11:08:25.289,0.786,-3,0.868
12/17/2014 11:08:25.302,0.891,-2.323,0.396
12/17/2014 11:08:25.313,0.355,-0.944,0.273
12/17/2014 11:08:25.326,0.029,-0.287,0.284
12/17/2014 11:08:25.338,-0.173,0.135,0.519
12/17/2014 11:08:25.351,-0.402,0.727,0.443
12/17/2014 11:08:25.364,-0.598,1.12,0.164
12/17/2014 11:08:25.377,-0.698,0.959,-0.07
12/17/2014 11:08:25.388,-0.457,0.434,-0.161
12/17/2014 11:08:25.401,-0.1,0.276,-0.088
12/17/2014 11:08:25.414,0.129,0.317,-0.07
12/17/2014 11:08:25.427,0.152,0.302,-0.056
12/17/2014 11:08:25.438,-0.062,0.182,0.12
12/17/2014 11:08:25.451,-0.416,-0.015,0.208
12/17/2014 11:08:25.463,-0.581,-0.117,0.399
12/17/2014 11:08:25.476,-0.595,-0.109,0.754
12/17/2014 11:08:25.489,-1.249,-0.563,0.865
12/17/2014 11:08:25.502,-1.894,-1.176,1.003
12/17/2014 11:08:25.513,-1.273,-1.455,1.202
12/17/2014 11:08:25.526,-0.845,-2.507,0.839
12/17/2014 11:08:25.539,-1.1,-3,0.226
12/17/2014 11:08:25.552,-0.666,-3,0.15
12/17/2014 11:08:25.563,0.405,-3,0.065
12/17/2014 11:08:25.576,1.349,-3,0.191
12/17/2014 11:08:25.588,1.343,-2.83,0.34
12/17/2014 11:08:25.601,1.038,-1.765,-0.226
12/17/2014 11:08:25.614,0.457,-1.109,-0.334
12/17/2014 11:08:25.627,-0.117,-0.721,-0.252
12/17/2014 11:08:25.638,-0.375,-0.657,0.129
12/17/2014 11:08:25.651,-0.651,0.094,0.246
12/17/2014 11:08:25.664,-0.918,0.959,0.232
12/17/2014 11:08:25.677,-0.968,1.654,0.164
12/17/2014 11:08:25.688,-0.724,1.78,0.114
12/17/2014 11:08:25.701,-0.425,1.317,0.37
12/17/2014 11:08:25.713,-0.179,0.865,0.592
12/17/2014 11:08:25.726,-0.059,0.39,0.396
12/17/2014 11:08:25.739,-0.138,-0.531,-0.182
12/17/2014 11:08:25.752,0.223,-0.516,-0.129
12/17/2014 11:08:25.763,0.044,-0.208,-0.261
12/17/2014 11:08:25.776,0.091,0.279,-0.009
12/17/2014 11:08:25.789,0.003,0.021,-0.182
12/17/2014 11:08:25.802,0.598,-0.326,-0.211
12/17/2014 11:08:25.813,0.545,-1.079,-0.343
12/17/2014 11:08:25.826,-0.809,-1.408,-0.22
12/17/2014 11:08:25.838,-1.035,-2,0.041
12/17/2014 11:08:25.851,0.196,-2.982,0.029
12/17/2014 11:08:25.864,0.279,-2.965,0.37
12/17/2014 11:08:25.877,0.249,-2.513,0.287
12/17/2014 11:08:25.888,-0.035,-2.284,0.114
12/17/2014 11:08:25.901,-0.299,-1.806,-0.123
12/17/2014 11:08:25.914,-0.211,-1.472,-0.501
12/17/2014 11:08:25.927,-0.15,-3,0.009
12/17/2014 11:08:25.938,0.557,-3,0.824
12/17/2014 11:08:25.951,0.375,-2.161,0.63
12/17/2014 11:08:25.963,0.018,-1.114,0.528
12/17/2014 11:08:25.976,-0.314,-0.651,0.598
12/17/2014 11:08:25.989,-0.308,0.018,0.663
12/17/2014 11:08:26.002,-0.255,0.804,0.246
12/17/2014 11:08:26.013,-0.314,1.138,-0.015
12/17/2014 11:08:26.026,-0.416,0.918,-0.147
12/17/2014 11:08:26.039,-0.264,0.522,-0.22
12/17/2014 11:08:26.052,0.056,0.352,-0.088
12/17/2014 11:08:26.063,0.188,0.399,-0.065
12/17/2014 11:08:26.076,0.085,0.267,0.056
12/17/2014 11:08:26.088,-0.167,0.006,0.191
12/17/2014 11:08:26.101,-0.507,-0.202,0.243
12/17/2014 11:08:26.114,-0.595,-0.282,0.361
12/17/2014 11:08:26.127,-0.469,-0.217,0.431
12/17/2014 11:08:26.138,-0.754,-0.252,0.595
12/17/2014 11:08:26.151,-1.54,-0.991,0.713
12/17/2014 11:08:26.164,-1.877,-1.402,1.006
12/17/2014 11:08:26.177,-0.924,-1.762,1.044
12/17/2014 11:08:26.188,-0.402,-3,0.273
12/17/2014 11:08:26.201,-0.499,-3,-0.185
12/17/2014 11:08:26.213,0.367,-3,0.396
12/17/2014 11:08:26.226,0.915,-3,0.487
12/17/2014 11:08:26.239,1.317,-2.563,0.009
12/17/2014 11:08:26.252,1.012,-1.877,-0.384
12/17/2014 11:08:26.263,0.284,-0.83,-0.428
12/17/2014 11:08:26.276,0.132,-0.894,-0.097
12/17/2014 11:08:26.289,0.103,-0.959,0.54
12/17/2014 11:08:26.302,-0.455,0.396,0.032
12/17/2014 11:08:26.313,-0.774,0.809,0.194
12/17/2014 11:08:26.326,-0.977,1.601,0.12
12/17/2014 11:08:26.338,-0.801,1.865,0.097
12/17/2014 11:08:26.351,-0.416,1.472,0.361
12/17/2014 11:08:26.364,-0.129,0.953,0.598
12/17/2014 11:08:26.377,0.006,0.472,0.361
12/17/2014 11:08:26.388,-0.132,-0.472,-0.29
12/17/2014 11:08:26.401,0.22,-0.413,-0.053
12/17/2014 11:08:26.414,-0.164,-0.238,-0.067
12/17/2014 11:08:26.427,-0.326,-0.003,0.114
12/17/2014 11:08:26.438,-0.337,-0.158,-0.129
12/17/2014 11:08:26.451,0.261,-0.721,-0.138
12/17/2014 11:08:26.463,0.431,-1.24,-0.279
12/17/2014 11:08:26.476,-0.531,-1.343,-0.1
12/17/2014 11:08:26.489,-0.317,-1.927,0.109
12/17/2014 11:08:26.502,0.545,-2.663,-0.211
12/17/2014 11:08:26.513,0.434,-2.724,0.361
12/17/2014 11:08:26.526,0.138,-2.478,0.402
12/17/2014 11:08:26.539,-0.138,-2.361,0.067
12/17/2014 11:08:26.552,-0.255,-1.941,-0.22
12/17/2014 11:08:26.563,-0.006,-1.856,-0.328
12/17/2014 11:08:26.576,-0.062,-3,-0.032
12/17/2014 11:08:26.588,0.604,-3,0.868
12/17/2014 11:08:26.601,0.657,-2.15,0.507
12/17/2014 11:08:26.614,0.44,-1.328,0.276
12/17/2014 11:08:26.627,0.021,-0.449,0.32
12/17/2014 11:08:26.638,-0.375,0.293,0.604
12/17/2014 11:08:26.651,-0.589,0.924,0.428
12/17/2014 11:08:26.664,-0.842,1.226,0.135
12/17/2014 11:08:26.677,-0.874,0.93,-0.082
12/17/2014 11:08:26.688,-0.413,0.375,-0.155
12/17/2014 11:08:26.701,0.029,0.196,-0.123
12/17/2014 11:08:26.713,0.152,0.152,-0.079
12/17/2014 11:08:26.726,0.12,0.132,0.003
12/17/2014 11:08:26.739,-0.018,0.047,0.097
12/17/2014 11:08:26.752,-0.27,-0.132,0.194
12/17/2014 11:08:26.763,-0.478,-0.196,0.334
12/17/2014 11:08:26.776,-0.475,-0.132,0.466
12/17/2014 11:08:26.789,-0.935,-0.384,0.607
12/17/2014 11:08:26.802,-1.481,-1.12,0.757
12/17/2014 11:08:26.813,-1.199,-1.334,1.003
12/17/2014 11:08:26.826,-0.501,-2.188,0.798
12/17/2014 11:08:26.838,-0.499,-3,0.284
12/17/2014 11:08:26.851,-0.358,-3,0.05
12/17/2014 11:08:26.864,0.252,-3,0.287
12/17/2014 11:08:26.877,0.83,-3,0.235
12/17/2014 11:08:26.888,1.056,-2.478,-0.044
12/17/2014 11:08:26.901,0.827,-1.754,-0.457
12/17/2014 11:08:26.914,0.044,-1.094,-0.469
12/17/2014 11:08:26.927,-0.041,-1.642,-0.012
12/17/2014 11:08:26.938,-0.12,-0.534,0.525
12/17/2014 11:08:26.951,-0.648,0.548,0.182
12/17/2014 11:08:26.963,-0.771,0.739,0.334
12/17/2014 11:08:26.976,-0.9,1.628,0.17
12/17/2014 11:08:26.989,-0.707,2.15,-0.044
12/17/2014 11:08:27.002,-0.352,1.601,0.522
12/17/2014 11:08:27.013,-0.1,0.827,0.853
12/17/2014 11:08:27.026,0.003,0.282,0.554
12/17/2014 11:08:27.039,-0.226,-0.569,-0.182
12/17/2014 11:08:27.052,0.073,-0.698,-0.044
12/17/2014 11:08:27.063,-0.132,-0.249,-0.094
12/17/2014 11:08:27.076,-0.088,0.202,-0.07
12/17/2014 11:08:27.088,0.035,-0.15,-0.126
12/17/2014 11:08:27.101,0.543,-0.543,-0.226
12/17/2014 11:08:27.114,0.217,-1.123,-0.34
12/17/2014 11:08:27.127,-0.874,-1.487,-0.17
12/17/2014 11:08:27.138,-0.757,-2.135,-0.029
12/17/2014 11:08:27.151,0.399,-2.686,0.065
12/17/2014 11:08:27.164,0.065,-2.343,0.182
12/17/2014 11:08:27.177,0,-2.132,0.114
12/17/2014 11:08:27.188,-0.238,-2.006,-0.026
12/17/2014 11:08:27.201,-0.575,-1.912,-0.1
12/17/2014 11:08:27.213,-0.566,-1.633,-0.258
12/17/2014 11:08:27.226,-0.267,-2.965,0
12/17/2014 11:08:27.239,0.493,-3,0.616
12/17/2014 11:08:27.252,0.994,-2.757,0.507
12/17/2014 11:08:27.263,0.522,-1.642,0.32
12/17/2014 11:08:27.276,0.003,-0.578,0.226
12/17/2014 11:08:27.289,-0.405,-0.226,0.534
12/17/2014 11:08:27.302,-0.592,0.299,0.598
12/17/2014 11:08:27.313,-0.537,0.953,0.314
12/17/2014 11:08:27.326,-0.516,1.138,0.161
12/17/2014 11:08:27.338,-0.399,0.774,-0.079
12/17/2014 11:08:27.351,-0.106,0.147,-0.226
12/17/2014 11:08:27.364,-0.029,0.161,-0.211
12/17/2014 11:08:27.377,-0.047,0.182,-0.17
12/17/2014 11:08:27.388,-0.106,0.279,-0.003
12/17/2014 11:08:27.401,-0.223,0.223,0.114
12/17/2014 11:08:27.414,-0.396,-0.041,0.094
12/17/2014 11:08:27.427,-0.402,-0.135,0.273
12/17/2014 11:08:27.438,-0.504,-0.076,0.66
12/17/2014 11:08:27.451,-1.161,-0.695,0.692
12/17/2014 11:08:27.463,-1.191,-1.202,0.982
12/17/2014 11:08:27.476,-0.721,-1.51,0.962
12/17/2014 11:08:27.489,-0.891,-2.519,0.672
12/17/2014 11:08:27.502,-1.273,-3,0.205
12/17/2014 11:08:27.513,-0.83,-3,0.258
12/17/2014 11:08:27.526,0.114,-3,0.106
12/17/2014 11:08:27.539,1.082,-3,-0.182
12/17/2014 11:08:27.552,1.378,-3,0.205
12/17/2014 11:08:27.563,1.111,-1.956,-0.194
12/17/2014 11:08:27.576,0.575,-1.331,-0.252
12/17/2014 11:08:27.588,-0.261,-0.801,-0.097
12/17/2014 11:08:27.601,-0.372,-1.575,0.387
12/17/2014 11:08:27.614,-0.607,0.279,-0.041
12/17/2014 11:08:27.627,-0.842,1.018,0.182
12/17/2014 11:08:27.638,-0.839,1.205,0.358
12/17/2014 11:08:27.651,-0.613,1.654,0.308
12/17/2014 11:08:27.664,-0.443,1.557,0.387
12/17/2014 11:08:27.677,-0.132,0.953,0.598
12/17/2014 11:08:27.688,0.041,0.431,0.387
12/17/2014 11:08:27.701,-0.106,-0.255,-0.067
12/17/2014 11:08:27.713,0.059,-0.736,-0.252
12/17/2014 11:08:27.726,0.129,-0.179,0.044
12/17/2014 11:08:27.739,0,0.232,-0.114
12/17/2014 11:08:27.752,0.044,0.029,-0.299
12/17/2014 11:08:27.763,0.381,-0.499,-0.249
12/17/2014 11:08:27.776,-0.581,-0.801,0.009
12/17/2014 11:08:27.789,-1.695,-2.088,-0.023
12/17/2014 11:08:27.802,-0.757,-3,0.182
12/17/2014 11:08:27.813,0.264,-2.865,0.287
12/17/2014 11:08:27.826,0.264,-2.411,0.018
12/17/2014 11:08:27.838,0.035,-2.062,0.15
12/17/2014 11:08:27.851,-0.255,-2.065,0.065
12/17/2014 11:08:27.864,-0.317,-1.877,-0.179
12/17/2014 11:08:27.877,-0.355,-1.842,-0.267
12/17/2014 11:08:27.888,-0.328,-2.85,0.375
12/17/2014 11:08:27.901,0.293,-3,0.853
12/17/2014 11:08:27.914,0.487,-2.24,0.522
12/17/2014 11:08:27.927,0.331,-1.331,0.196
12/17/2014 11:08:27.938,-0.167,-0.71,0.29
12/17/2014 11:08:27.951,-0.578,-0.015,0.657
12/17/2014 11:08:27.963,-0.56,0.804,0.446
12/17/2014 11:08:27.976,-0.507,1.188,0.073
12/17/2014 11:08:27.989,-0.584,0.862,-0.211
12/17/2014 11:08:28.002,-0.387,0.194,-0.334
12/17/2014 11:08:28.013,-0.021,-0.123,-0.246
12/17/2014 11:08:28.026,0.205,-0.056,-0.129
12/17/2014 11:08:28.039,0.264,-0.003,0.003
12/17/2014 11:08:28.052,0.211,0.056,0.067
12/17/2014 11:08:28.063,0.094,-0.003,0.097
12/17/2014 11:08:28.076,-0.179,-0.079,0.208
12/17/2014 11:08:28.088,-0.434,-0.138,0.34
12/17/2014 11:08:28.101,-0.475,-0.035,0.472
12/17/2014 11:08:28.114,-0.639,-0.006,0.592
12/17/2014 11:08:28.127,-1.255,-0.56,0.768
12/17/2014 11:08:28.138,-1.856,-1.185,0.93
12/17/2014 11:08:28.151,-1.466,-1.279,1.393
12/17/2014 11:08:28.164,-0.9,-2.381,0.824
12/17/2014 11:08:28.177,-0.61,-3,0.003
12/17/2014 11:08:28.188,-0.196,-3,0.299
12/17/2014 11:08:28.201,0.317,-3,0.299
12/17/2014 11:08:28.213,0.487,-2.979,0.161
12/17/2014 11:08:28.226,0.628,-1.692,-0.249
12/17/2014 11:08:28.239,0.786,-1.375,-0.446
12/17/2014 11:08:28.252,0.337,-1.065,-0.293
12/17/2014 11:08:28.263,0.238,-1.71,0.704
12/17/2014 11:08:28.276,-0.196,0.144,0.238
12/17/2014 11:08:28.289,-0.871,0.944,0.041
12/17/2014 11:08:28.302,-1.264,1.352,0.194
12/17/2014 11:08:28.313,-1.032,1.935,0.044
12/17/2014 11:08:28.326,-0.355,1.657,0.273
12/17/2014 11:08:28.338,0.123,0.977,0.733
12/17/2014 11:08:28.351,0.314,0.249,0.566
12/17/2014 11:08:28.364,-0.1,-0.61,-0.161
12/17/2014 11:08:28.377,0.211,-0.49,-0.205
12/17/2014 11:08:28.388,-0.035,-0.455,-0.111
12/17/2014 11:08:28.401,-0.003,0.24,0.411
12/17/2014 11:08:28.414,-0.217,0.15,-0.411
12/17/2014 11:08:28.427,0.589,-0.296,-0.399
12/17/2014 11:08:28.438,0.287,-0.701,-0.205
12/17/2014 11:08:28.451,-1.367,-1.443,-0.217
12/17/2014 11:08:28.463,-1.487,-2.589,-0.261
12/17/2014 11:08:28.476,-0.701,-3,0.598
12/17/2014 11:08:28.489,-0.267,-2.622,0.372
12/17/2014 11:08:28.502,0.114,-2.22,0
12/17/2014 11:08:28.513,0.073,-2.056,-0.399
12/17/2014 11:08:28.526,-0.079,-1.991,-0.455
12/17/2014 11:08:28.539,0.246,-1.991,-0.346
12/17/2014 11:08:28.552,0.311,-3,0.346
12/17/2014 11:08:28.563,0.628,-3,0.537
12/17/2014 11:08:28.576,0.528,-2.135,0.457
12/17/2014 11:08:28.588,0.032,-1.302,0.472
12/17/2014 11:08:28.601,-0.493,-0.657,0.493
12/17/2014 11:08:28.614,-0.809,-0.194,0.768
12/17/2014 11:08:28.627,-0.962,0.566,0.63
12/17/2014 11:08:28.638,-0.798,1.097,0.252
12/17/2014 11:08:28.651,-0.633,1.035,-0.003
12/17/2014 11:08:28.664,-0.457,0.416,-0.249
12/17/2014 11:08:28.677,-0.188,0.202,-0.261
12/17/2014 11:08:28.688,0.006,0.299,-0.182
12/17/2014 11:08:28.701,0.062,0.384,-0.161
12/17/2014 11:08:28.713,-0.026,0.405,0.205
12/17/2014 11:08:28.726,-0.217,0.15,0.323
12/17/2014 11:08:28.739,-0.352,-0.161,0.17
12/17/2014 11:08:28.752,-0.179,-0.235,0.314
12/17/2014 11:08:28.763,0.021,-0.056,0.384
12/17/2014 11:08:28.776,-0.592,-0.267,0.466
12/17/2014 11:08:28.789,-1.381,-1.038,0.73
12/17/2014 11:08:28.802,-1.625,-1.346,0.968
12/17/2014 11:08:28.813,-1.091,-1.921,0.853
12/17/2014 11:08:28.826,-0.613,-3,0.226
12/17/2014 11:08:28.838,-0.501,-3,0.129
12/17/2014 11:08:28.851,0.026,-3,0.185
12/17/2014 11:08:28.864,0.478,-3,0.205
12/17/2014 11:08:28.877,0.815,-2.449,-0.1
12/17/2014 11:08:28.888,0.921,-2.026,-0.455
12/17/2014 11:08:28.901,0.405,-1.041,-0.328
12/17/2014 11:08:28.914,0.164,-1.716,0.111
12/17/2014 11:08:28.927,0.117,-0.891,0.575
12/17/2014 11:08:28.938,-0.355,0.144,-0.012
12/17/2014 11:08:28.951,-0.457,0.563,0.059
12/17/2014 11:08:28.963,-0.669,1.035,0.314
12/17/2014 11:08:28.976,-0.768,1.598,0.141
12/17/2014 11:08:28.989,-0.49,1.724,0.182
12/17/2014 11:08:29.002,-0.109,1.24,0.39
12/17/2014 11:08:29.013,0.056,0.633,0.273
12/17/2014 11:08:29.026,-0.059,-0.331,-0.147
12/17/2014 11:08:29.039,-0.065,-0.575,-0.026
12/17/2014 11:08:29.052,0.003,-0.152,0.1
12/17/2014 11:08:29.063,-0.176,-0.05,0.17
12/17/2014 11:08:29.076,-0.384,-0.323,-0.106
12/17/2014 11:08:29.088,-0.026,-0.578,-0.29
12/17/2014 11:08:29.101,-0.261,-0.757,-0.094
12/17/2014 11:08:29.114,-1.413,-1.566,0.012
12/17/2014 11:08:29.127,-0.795,-2.296,0.023
12/17/2014 11:08:29.138,0.484,-2.894,0.191
12/17/2014 11:08:29.151,0.49,-2.563,0.129
12/17/2014 11:08:29.164,0.311,-2.311,0.085
12/17/2014 11:08:29.177,-0.109,-2.287,-0.05
12/17/2014 11:08:29.188,-0.317,-1.897,-0.37
12/17/2014 11:08:29.201,-0.358,-1.915,-0.428
12/17/2014 11:08:29.213,-0.235,-3,0.287
12/17/2014 11:08:29.226,0.361,-3,0.897
12/17/2014 11:08:29.239,0.487,-2.073,0.32
12/17/2014 11:08:29.252,0.355,-1.158,0.07
12/17/2014 11:08:29.263,0.015,-0.399,0.238
12/17/2014 11:08:29.276,-0.287,0.223,0.598
12/17/2014 11:08:29.289,-0.411,0.856,0.519
12/17/2014 11:08:29.302,-0.622,1.111,0.161
12/17/2014 11:08:29.313,-0.68,0.83,-0.082
12/17/2014 11:08:29.326,-0.375,0.079,-0.238
12/17/2014 11:08:29.338,-0.1,-0.176,-0.317
12/17/2014 11:08:29.351,0.065,-0.07,-0.211
12/17/2014 11:08:29.364,0.079,0.117,-0.065
12/17/2014 11:08:29.377,0.026,0.293,0.05
12/17/2014 11:08:29.388,-0.047,0.255,0.094
12/17/2014 11:08:29.401,-0.208,0.003,0.109
12/17/2014 11:08:29.414,-0.328,-0.24,0.287
12/17/2014 11:08:29.427,-0.434,-0.158,0.51
12/17/2014 11:08:29.438,-1.023,-0.49,0.727
12/17/2014 11:08:29.451,-1.716,-1.056,0.924
12/17/2014 11:08:29.463,-1.457,-1.155,1.279
12/17/2014 11:08:29.476,-0.982,-2.164,1.018
12/17/2014 11:08:29.489,-1.023,-3,0.267
12/17/2014 11:08:29.502,-0.639,-3,0.343
12/17/2014 11:08:29.513,0.176,-3,0.293
12/17/2014 11:08:29.526,0.543,-3,0.067
12/17/2014 11:08:29.539,0.651,-2.135,-0.041
12/17/2014 11:08:29.552,0.962,-1.393,-0.54
12/17/2014 11:08:29.563,0.745,-1.147,-0.636
12/17/2014 11:08:29.576,0.56,-1.956,0.267
12/17/2014 11:08:29.588,0.164,-0.44,0.501
12/17/2014 11:08:29.601,-0.757,1.021,-0.07
12/17/2014 11:08:29.614,-1.05,1.211,0.238
12/17/2014 11:08:29.627,-0.877,1.569,0.161
12/17/2014 11:08:29.638,-0.463,1.669,0.111
12/17/2014 11:08:29.651,-0.114,1.167,0.425
12/17/2014 11:08:29.664,0.123,0.513,0.452
12/17/2014 11:08:29.677,-0.032,-0.211,0.088
12/17/2014 11:08:29.688,-0.252,-0.431,-0.141
12/17/2014 11:08:29.701,-0.132,-0.566,0.018
12/17/2014 11:08:29.713,0.029,0.07,0.29
12/17/2014 11:08:29.726,-0.252,0.381,-0.34
12/17/2014 11:08:29.739,0.079,0.123,-0.235
12/17/2014 11:08:29.752,0.37,-0.311,-0.17
12/17/2014 11:08:29.763,0.299,-0.859,-0.211
12/17/2014 11:08:29.776,-0.909,-0.903,0.009
12/17/2014 11:08:29.789,-1.572,-1.836,-0.065
12/17/2014 11:08:29.802,-0.246,-3,0.065
12/17/2014 11:08:29.813,0.326,-3,0.331
12/17/2014 11:08:29.826,0.701,-2.721,0.182
12/17/2014 11:08:29.838,0.413,-2.425,-0.085
12/17/2014 11:08:29.851,0.091,-2.147,-0.1
12/17/2014 11:08:29.864,0.223,-1.557,-0.466
12/17/2014 11:08:29.877,-0.276,-2.431,-0.416
12/17/2014 11:08:29.888,-0.328,-3,0.616
12/17/2014 11:08:29.901,0.006,-2.202,0.44
12/17/2014 11:08:29.914,0.015,-1.648,0.258
12/17/2014 11:08:29.927,-0.1,-0.953,0.425
12/17/2014 11:08:29.938,-0.205,-0.191,0.584
12/17/2014 11:08:29.951,-0.205,0.449,0.639
12/17/2014 11:08:29.963,-0.328,0.933,0.381
12/17/2014 11:08:29.976,-0.457,0.903,0.015
12/17/2014 11:08:29.989,-0.367,0.255,-0.232
12/17/2014 11:08:30.002,-0.1,0.044,-0.246
12/17/2014 11:08:30.013,0.123,0.276,-0.167
12/17/2014 11:08:30.026,0.235,0.352,-0.12
12/17/2014 11:08:30.039,0.094,0.296,0.05
12/17/2014 11:08:30.052,-0.217,0.117,0.179
12/17/2014 11:08:30.063,-0.443,-0.079,0.152
12/17/2014 11:08:30.076,-0.431,-0.138,0.293
12/17/2014 11:08:30.088,-0.707,-0.106,0.607
12/17/2014 11:08:30.101,-1.501,-0.877,0.883
12/17/2014 11:08:30.114,-1.522,-1.152,1.17
12/17/2014 11:08:30.127,-0.979,-1.716,1.293
12/17/2014 11:08:30.138,-1.129,-3,0.9
12/17/2014 11:08:30.151,-1.334,-3,0.63
12/17/2014 11:08:30.164,-0.548,-3,0.39
12/17/2014 11:08:30.177,0.232,-3,-0.088
12/17/2014 11:08:30.188,0.815,-2.921,-0.097
12/17/2014 11:08:30.201,1.041,-2.208,0.05
12/17/2014 11:08:30.213,1.05,-1.792,-0.457
12/17/2014 11:08:30.226,0.648,-1.449,-0.46
12/17/2014 11:08:30.239,0.152,-1.372,-0.05
12/17/2014 11:08:30.252,0.205,-0.296,0.411
12/17/2014 11:08:30.263,-0.267,1.188,0.015
12/17/2014 11:08:30.276,-0.402,1.334,-0.065
12/17/2014 11:08:30.289,-0.804,1.584,0.267
12/17/2014 11:08:30.302,-0.824,1.886,0.223
12/17/2014 11:08:30.313,-0.396,1.513,0.428
12/17/2014 11:08:30.326,0.056,0.795,0.716
12/17/2014 11:08:30.338,0.079,-0.088,0.405
12/17/2014 11:08:30.351,-0.701,-0.721,-0.135
12/17/2014 11:08:30.364,-0.34,-0.739,0.023
12/17/2014 11:08:30.377,-0.302,-0.463,0.381
12/17/2014 11:08:30.388,-0.202,-0.07,0.196
12/17/2014 11:08:30.401,-0.047,-0.299,-0.226
12/17/2014 11:08:30.414,0.628,-0.78,-0.073
12/17/2014 11:08:30.427,0.73,-0.842,-0.194
12/17/2014 11:08:30.438,-0.211,-0.428,-0.185
12/17/2014 11:08:30.451,-1.625,-1.138,-0.032
12/17/2014 11:08:30.463,-1.457,-1.877,-0.196
12/17/2014 11:08:30.476,-0.372,-2.633,0.1
12/17/2014 11:08:30.489,-0.27,-2.751,0.065
12/17/2014 11:08:30.502,0.267,-2.235,-0.161
12/17/2014 11:08:30.513,0.047,-2.041,-0.425
12/17/2014 11:08:30.526,-0.147,-2.012,-0.416
12/17/2014 11:08:30.539,0.37,-2.144,-0.551
12/17/2014 11:08:30.552,0.22,-3,0.026
12/17/2014 11:08:30.563,0.827,-3,0.674
12/17/2014 11:08:30.576,0.76,-1.921,0.167
12/17/2014 11:08:30.588,0.372,-1.24,0.299
12/17/2014 11:08:30.601,-0.114,-0.472,0.238
12/17/2014 11:08:30.614,-0.501,0.1,0.519
12/17/2014 11:08:30.627,-0.83,0.625,0.616
12/17/2014 11:08:30.638,-0.921,1.079,0.375
12/17/2014 11:08:30.651,-0.751,0.736,0.094
12/17/2014 11:08:30.664,-0.37,0.003,0.015
12/17/2014 11:08:30.677,-0.24,-0.012,-0.065
12/17/2014 11:08:30.688,-0.226,0.182,-0.164
12/17/2014 11:08:30.701,-0.202,0.317,-0.015
12/17/2014 11:08:30.713,-0.179,0.37,0.1
12/17/2014 11:08:30.726,-0.188,0.196,-0.015
12/17/2014 11:08:30.739,-0.021,0.073,0.05
12/17/2014 11:08:30.752,0.196,0.176,0.235
12/17/2014 11:08:30.763,-0.402,-0.167,0.484
12/17/2014 11:08:30.776,-0.944,-0.921,0.771
12/17/2014 11:08:30.789,-0.842,-1.094,0.982
12/17/2014 11:08:30.802,-0.812,-1.909,0.795
12/17/2014 11:08:30.813,-1.182,-3,0.689
12/17/2014 11:08:30.826,-1.39,-3,0.487
12/17/2014 11:08:30.838,-1.003,-3,0.032
12/17/2014 11:08:30.851,-0.328,-3,-0.249
12/17/2014 11:08:30.864,0.531,-2.68,-0.079
12/17/2014 11:08:30.877,1.211,-2.109,-0.135
12/17/2014 11:08:30.888,1.405,-2.284,-0.29
12/17/2014 11:08:30.901,0.686,-1.663,-0.082
12/17/2014 11:08:30.914,-0.073,-1.707,0.293
12/17/2014 11:08:30.927,-0.103,-0.537,0.413
12/17/2014 11:08:30.938,-0.566,0.701,0.179
12/17/2014 11:08:30.951,-0.818,1.114,0.032
12/17/2014 11:08:30.963,-1.056,1.405,0.261
12/17/2014 11:08:30.976,-0.824,1.724,0.243
12/17/2014 11:08:30.989,-0.399,1.428,0.349
12/17/2014 11:08:31.002,0.015,0.736,0.499
12/17/2014 11:08:31.013,0.1,-0.05,0.293
12/17/2014 11:08:31.026,-0.402,-0.716,-0.053
12/17/2014 11:08:31.039,-0.106,-0.663,-0.147
12/17/2014 11:08:31.052,-0.006,-0.176,0.1
12/17/2014 11:08:31.063,-0.114,0.246,-0.194
12/17/2014 11:08:31.076,0.182,-0.152,-0.314
12/17/2014 11:08:31.088,0.493,-0.563,-0.37
12/17/2014 11:08:31.101,-0.457,-0.839,0.015
12/17/2014 11:08:31.114,-1.173,-1.93,-0.179
12/17/2014 11:08:31.127,-0.287,-3,-0.147
12/17/2014 11:08:31.138,0.428,-2.716,0.194
12/17/2014 11:08:31.151,0.328,-2.012,0
12/17/2014 11:08:31.164,0.129,-1.88,-0.155
12/17/2014 11:08:31.177,-0.202,-1.941,-0.138
12/17/2014 11:08:31.188,-0.487,-1.669,-0.29
12/17/2014 11:08:31.201,-0.543,-1.642,-0.411
12/17/2014 11:08:31.213,-0.613,-3,0.431
12/17/2014 11:08:31.226,0.062,-3,0.786
12/17/2014 11:08:31.239,0.255,-1.9,0.182
12/17/2014 11:08:31.252,0.117,-1.378,0.273
12/17/2014 11:08:31.263,-0.1,-0.701,0.413
12/17/2014 11:08:31.276,-0.367,0.22,0.566
12/17/2014 11:08:31.289,-0.296,0.783,0.284
12/17/2014 11:08:31.302,-0.296,1.021,-0.067
12/17/2014 11:08:31.313,-0.328,0.713,-0.284
12/17/2014 11:08:31.326,-0.123,0.117,-0.32
12/17/2014 11:08:31.338,0.085,-0.073,-0.176
12/17/2014 11:08:31.351,0.147,-0.015,-0.059
12/17/2014 11:08:31.364,0.117,0.138,0.032
12/17/2014 11:08:31.377,-0.05,0.088,0.147
12/17/2014 11:08:31.388,-0.317,-0.091,0.17
12/17/2014 11:08:31.401,-0.449,-0.132,0.302
12/17/2014 11:08:31.414,-0.455,-0.021,0.425
12/17/2014 11:08:31.427,-1.006,-0.279,0.619
12/17/2014 11:08:31.438,-1.642,-0.953,0.977
12/17/2014 11:08:31.451,-1.352,-1.053,1.264
12/17/2014 11:08:31.463,-1.106,-2.003,0.962
12/17/2014 11:08:31.476,-1.273,-3,0.478
12/17/2014 11:08:31.489,-1.003,-3,0.493
12/17/2014 11:08:31.502,-0.15,-3,0.082
12/17/2014 11:08:31.513,0.484,-3,-0.208
12/17/2014 11:08:31.526,0.739,-2.446,-0.032
12/17/2014 11:08:31.539,1.082,-1.777,-0.287
12/17/2014 11:08:31.552,1.144,-1.777,-0.422
12/17/2014 11:08:31.563,0.513,-0.994,-0.217
12/17/2014 11:08:31.576,0.384,-1.232,0.581
12/17/2014 11:08:31.588,0.059,0.39,0.232
12/17/2014 11:08:31.601,-0.713,0.891,-0.141
12/17/2014 11:08:31.614,-1.337,1.188,0.029
12/17/2014 11:08:31.627,-1.003,1.551,0.361
12/17/2014 11:08:31.638,-0.44,1.328,0.522
12/17/2014 11:08:31.651,-0.003,0.771,0.563
12/17/2014 11:08:31.664,0.12,0.217,0.355
12/17/2014 11:08:31.677,-0.361,-0.343,-0.067
12/17/2014 11:08:31.688,-0.232,-0.457,-0.164
12/17/2014 11:08:31.701,-0.235,-0.314,-0.038
12/17/2014 11:08:31.713,0.088,0.39,0.05
12/17/2014 11:08:31.726,-0.1,0.147,-0.358
12/17/2014 11:08:31.739,0.443,-0.317,-0.305
12/17/2014 11:08:31.752,0.34,-0.812,-0.267
12/17/2014 11:08:31.763,-1.056,-1.144,0
12/17/2014 11:08:31.776,-0.991,-2.138,-0.032
12/17/2014 11:08:31.789,0.217,-3,0.179
12/17/2014 11:08:31.802,0.504,-2.933,0.179
12/17/2014 11:08:31.813,0.522,-2.287,-0.211
12/17/2014 11:08:31.826,0.287,-1.88,-0.384
12/17/2014 11:08:31.838,0.003,-1.754,-0.361
12/17/2014 11:08:31.851,0.109,-1.405,-0.416
12/17/2014 11:08:31.864,-0.428,-2.707,-0.361
12/17/2014 11:08:31.877,-0.384,-3,0.607
12/17/2014 11:08:31.888,-0.123,-2.296,0.258
12/17/2014 11:08:31.901,-0.12,-1.648,0.273
12/17/2014 11:08:31.914,-0.114,-0.871,0.331
12/17/2014 11:08:31.927,-0.173,-0.076,0.402
12/17/2014 11:08:31.938,-0.293,0.642,0.437
12/17/2014 11:08:31.951,-0.232,0.947,0.314
12/17/2014 11:08:31.963,-0.372,0.871,0.085
12/17/2014 11:08:31.976,-0.355,0.191,0.018
12/17/2014 11:08:31.989,-0.232,-0.006,-0.009
12/17/2014 11:08:32.002,-0.123,0.129,0.026
12/17/2014 11:08:32.013,-0.056,0.246,-0.003
12/17/2014 11:08:32.026,-0.088,0.226,0.038
12/17/2014 11:08:32.039,-0.196,0.07,0.088
12/17/2014 11:08:32.052,-0.249,0.035,0.202
12/17/2014 11:08:32.063,-0.343,0.161,0.478
12/17/2014 11:08:32.076,-1.012,-0.455,0.827
12/17/2014 11:08:32.088,-1.381,-0.947,1.229
12/17/2014 11:08:32.101,-1.07,-1.243,1.545
12/17/2014 11:08:32.114,-1.54,-3,0.991
12/17/2014 11:08:32.127,-1.674,-3,1.161
12/17/2014 11:08:32.138,-1.487,-3,0.578
12/17/2014 11:08:32.151,-0.581,-2.798,-0.085
12/17/2014 11:08:32.164,0.507,-3,-0.302
12/17/2014 11:08:32.177,1.132,-2.68,0.05
12/17/2014 11:08:32.188,1.434,-2.27,-0.185
12/17/2014 11:08:32.201,1.302,-1.789,-0.346
12/17/2014 11:08:32.213,0.751,-0.988,0.026
12/17/2014 11:08:32.226,0.282,-0.578,0.217
12/17/2014 11:08:32.239,0.161,-0.604,0.114
12/17/2014 11:08:32.252,-0.117,0.633,-0.314
12/17/2014 11:08:32.263,-0.232,1.314,-0.252
12/17/2014 11:08:32.276,-0.46,1.818,-0.287
12/17/2014 11:08:32.289,-0.411,1.701,-0.053
12/17/2014 11:08:32.302,-0.27,1.217,0.126
12/17/2014 11:08:32.313,-0.138,0.443,0.232
12/17/2014 11:08:32.326,-0.282,-0.173,0.161
12/17/2014 11:08:32.338,-0.566,-0.367,0.041
12/17/2014 11:08:32.351,-0.299,-0.375,0.361
12/17/2014 11:08:32.364,-0.103,-0.317,0.12
12/17/2014 11:08:32.377,-0.062,-0.636,-0.314
12/17/2014 11:08:32.388,0.443,-0.786,-0.411
12/17/2014 11:08:32.401,0.018,-0.208,0.05
12/17/2014 11:08:32.414,-1.067,-1.07,-0.12
12/17/2014 11:08:32.427,-0.695,-1.434,-0.305
12/17/2014 11:08:32.438,0.249,-2.208,-0.147
12/17/2014 11:08:32.451,0.37,-2.736,0.284
12/17/2014 11:08:32.463,0.287,-2.472,0.522
12/17/2014 11:08:32.476,-0.152,-2.202,0.323
12/17/2014 11:08:32.489,-0.425,-2.147,0.17
12/17/2014 11:08:32.502,-0.27,-2.411,0.17
12/17/2014 11:08:32.513,-0.088,-2.707,0.238
12/17/2014 11:08:32.526,-0.475,-2.657,0
12/17/2014 11:08:32.539,-0.604,-2.528,0.39
12/17/2014 11:08:32.552,-0.619,-1.654,0.501
12/17/2014 11:08:32.563,-0.886,-0.891,0.375
12/17/2014 11:08:32.576,-0.991,-0.56,0.578
12/17/2014 11:08:32.588,-0.871,0.015,0.768
12/17/2014 11:08:32.601,-0.478,0.507,0.625
12/17/2014 11:08:32.614,-0.182,0.839,0.452
12/17/2014 11:08:32.627,-0.164,0.537,0.293
12/17/2014 11:08:32.638,-0.208,0.076,0.026
12/17/2014 11:08:32.651,-0.211,0.191,-0.208
12/17/2014 11:08:32.664,-0.1,0.428,-0.32
12/17/2014 11:08:32.677,0.106,0.405,-0.331
12/17/2014 11:08:32.688,0.252,0.361,-0.161
12/17/2014 11:08:32.701,0.22,0.267,-0.041
12/17/2014 11:08:32.713,0.24,0.088,-0.003
12/17/2014 11:08:32.726,0.328,0.006,0.194
12/17/2014 11:08:32.739,-0.176,-0.279,0.595
12/17/2014 11:08:32.752,-0.757,-0.991,0.994
12/17/2014 11:08:32.763,-0.874,-1.352,1.196
12/17/2014 11:08:32.776,-0.965,-2.434,0.856
12/17/2014 11:08:32.789,-1.232,-3,1.044
12/17/2014 11:08:32.802,-1.551,-3,0.968
12/17/2014 11:08:32.813,-1.129,-3,0.361
12/17/2014 11:08:32.826,-0.328,-3,-0.126
12/17/2014 11:08:32.838,0.548,-2.56,-0.147
12/17/2014 11:08:32.851,0.93,-2.431,0.12
12/17/2014 11:08:32.864,0.962,-2.109,0.129
12/17/2014 11:08:32.877,0.657,-1.827,-0.012
12/17/2014 11:08:32.888,0.158,-1.229,-0.044
12/17/2014 11:08:32.901,-0.205,-1.337,0.249
12/17/2014 11:08:32.914,-0.041,-0.114,0.261
12/17/2014 11:08:32.927,-0.314,1.109,0.17
12/17/2014 11:08:32.938,-0.651,1.601,-0.15
12/17/2014 11:08:32.951,-0.499,1.51,-0.364
12/17/2014 11:08:32.963,-0.27,1.774,0.044
12/17/2014 11:08:32.976,0.188,1.211,0.499
12/17/2014 11:08:32.989,0.296,0.337,0.63
12/17/2014 11:08:33.002,-0.249,-0.507,0.182
12/17/2014 11:08:33.013,-0.619,-0.604,0.026
12/17/2014 11:08:33.026,-0.27,-0.443,0.34
12/17/2014 11:08:33.039,-0.469,-0.774,0.226
12/17/2014 11:08:33.052,-0.264,-0.724,-0.109
12/17/2014 11:08:33.063,0.076,-0.754,-0.361
12/17/2014 11:08:33.076,-0.598,-0.472,0.126
12/17/2014 11:08:33.088,-1.56,-1.411,-0.217
12/17/2014 11:08:33.101,-0.455,-1.991,-0.147
12/17/2014 11:08:33.114,0.255,-1.95,0
12/17/2014 11:08:33.127,0.22,-2.076,-0.05
12/17/2014 11:08:33.138,0.279,-2.044,-0.205
12/17/2014 11:08:33.151,0.073,-2.003,-0.364
12/17/2014 11:08:33.164,-0.091,-1.997,-0.331
12/17/2014 11:08:33.177,0.129,-1.824,-0.416
12/17/2014 11:08:33.188,0.276,-2.537,-0.044
12/17/2014 11:08:33.201,0.135,-3,0.328
12/17/2014 11:08:33.213,0.367,-2.384,0.279
12/17/2014 11:08:33.226,0.27,-1.692,0.29
12/17/2014 11:08:33.239,-0.182,-0.78,0.264
12/17/2014 11:08:33.252,-0.648,-0.161,0.537
12/17/2014 11:08:33.263,-1.009,0.276,0.777
12/17/2014 11:08:33.276,-0.815,0.598,0.569
12/17/2014 11:08:33.289,-0.46,0.595,0.261
12/17/2014 11:08:33.302,-0.314,0.22,-0.044
12/17/2014 11:08:33.313,-0.191,0.147,-0.194
12/17/2014 11:08:33.326,-0.006,0.267,-0.185
12/17/2014 11:08:33.338,0.15,0.299,-0.196
12/17/2014 11:08:33.351,0.22,0.232,-0.106
12/17/2014 11:08:33.364,0.129,0.144,0.026
12/17/2014 11:08:33.377,0.056,0.041,0.111
12/17/2014 11:08:33.388,0.167,0.047,0.235
12/17/2014 11:08:33.401,0.094,-0.021,0.402
12/17/2014 11:08:33.414,-0.589,-0.46,0.701
12/17/2014 11:08:33.427,-1.443,-1.279,0.915
12/17/2014 11:08:33.438,-1.628,-1.528,1.085
12/17/2014 11:08:33.451,-1.114,-2.713,0.977
12/17/2014 11:08:33.463,-0.862,-3,0.554
12/17/2014 11:08:33.476,-0.76,-3,0.179
12/17/2014 11:08:33.489,-0.296,-3,0.079
12/17/2014 11:08:33.502,0.358,-3,0.141
12/17/2014 11:08:33.513,0.915,-2.284,0.106
12/17/2014 11:08:33.526,0.874,-1.812,-0.161
12/17/2014 11:08:33.539,0.358,-1.235,-0.314
12/17/2014 11:08:33.552,0.073,-2.12,0.267
12/17/2014 11:08:33.563,0.059,-0.71,0.364
12/17/2014 11:08:33.576,-0.381,0.478,0.279
12/17/2014 11:08:33.588,-0.698,1.158,0.185
12/17/2014 11:08:33.601,-0.93,1.463,0.073
12/17/2014 11:08:33.614,-0.683,1.531,0.155
12/17/2014 11:08:33.627,-0.299,1.358,0.331
12/17/2014 11:08:33.638,-0.05,0.642,0.405
12/17/2014 11:08:33.651,-0.026,0.035,0.314
12/17/2014 11:08:33.664,-0.384,-0.455,0.009
12/17/2014 11:08:33.677,-0.411,-0.449,-0.138
12/17/2014 11:08:33.688,-0.249,-0.252,-0.07
12/17/2014 11:08:33.701,-0.076,0.287,0.067
12/17/2014 11:08:33.713,0.182,-0.226,-0.551
12/17/2014 11:08:33.726,0.296,-0.416,-0.182
12/17/2014 11:08:33.739,-0.921,-1.158,-0.079
12/17/2014 11:08:33.752,-1.047,-2.328,-0.243
12/17/2014 11:08:33.763,0.37,-3,0.106
12/17/2014 11:08:33.776,0.425,-2.446,0.185
12/17/2014 11:08:33.789,0.161,-1.824,-0.123
12/17/2014 11:08:33.802,0.012,-1.736,-0.302
12/17/2014 11:08:33.813,-0.182,-1.853,-0.34
12/17/2014 11:08:33.826,-0.12,-1.516,-0.428
12/17/2014 11:08:33.838,-0.232,-2.144,-0.284
12/17/2014 11:08:33.851,-0.282,-3,0.501
12/17/2014 11:08:33.864,-0.065,-2.639,0.648
12/17/2014 11:08:33.877,-0.164,-1.513,0.129
12/17/2014 11:08:33.888,0.202,-1.182,0.232
12/17/2014 11:08:33.901,0.135,-0.493,0.452
12/17/2014 11:08:33.914,-0.34,0.255,0.604
12/17/2014 11:08:33.927,-0.501,0.663,0.563
12/17/2014 11:08:33.938,-0.507,0.815,0.334
12/17/2014 11:08:33.951,-0.463,0.261,-0.003
12/17/2014 11:08:33.963,-0.323,-0.202,-0.126
12/17/2014 11:08:33.976,-0.232,-0.085,-0.056
12/17/2014 11:08:33.989,-0.12,0.132,-0.026
12/17/2014 11:08:34.002,-0.006,0.208,0.003
12/17/2014 11:08:34.013,0.026,0.173,0.053
12/17/2014 11:08:34.026,-0.091,0.088,0.041
12/17/2014 11:08:34.039,-0.123,0.026,0.17
12/17/2014 11:08:34.052,-0.211,0.085,0.446
12/17/2014 11:08:34.063,-0.856,-0.56,0.815
12/17/2014 11:08:34.076,-1.314,-1.094,1.088
12/17/2014 11:08:34.088,-1.249,-1.314,1.246
12/17/2014 11:08:34.101,-1.24,-2.9,0.924
12/17/2014 11:08:34.114,-1.076,-3,1.161
12/17/2014 11:08:34.127,-1.085,-3,0.768
12/17/2014 11:08:34.138,-0.431,-3,-0.094
12/17/2014 11:08:34.151,0.249,-2.938,-0.191
12/17/2014 11:08:34.164,0.501,-2.264,0.032
12/17/2014 11:08:34.177,0.683,-1.657,-0.246
12/17/2014 11:08:34.188,0.874,-1.39,-0.293
12/17/2014 11:08:34.201,0.484,-0.713,0.114
12/17/2014 11:08:34.213,0.05,-0.798,0.493
12/17/2014 11:08:34.226,0.352,-0.056,0.15
12/17/2014 11:08:34.239,-0.255,1.062,-0.067
12/17/2014 11:08:34.252,-0.739,1.507,-0.323
12/17/2014 11:08:34.263,-0.639,1.93,-0.05
12/17/2014 11:08:34.276,-0.276,1.572,0.023
12/17/2014 11:08:34.289,0.144,0.903,0.302
12/17/2014 11:08:34.302,0.252,0.284,0.387
12/17/2014 11:08:34.313,-0.302,-0.293,0.065
12/17/2014 11:08:34.326,-0.326,-0.633,0.138
12/17/2014 11:08:34.338,-0.158,-0.314,0.334
12/17/2014 11:08:34.351,-0.598,-0.419,-0.012
12/17/2014 11:08:34.364,-0.323,-0.798,-0.226
12/17/2014 11:08:34.377,0.328,-0.921,-0.191
12/17/2014 11:08:34.388,0.158,-0.757,-0.176
12/17/2014 11:08:34.401,-0.968,-0.833,0.026
12/17/2014 11:08:34.414,-1.021,-1.639,-0.223
12/17/2014 11:08:34.427,0.419,-2.636,-0.152
12/17/2014 11:08:34.438,0.493,-2.636,0.29
12/17/2014 11:08:34.451,0.279,-2.117,0.082
12/17/2014 11:08:34.463,-0.109,-1.804,-0.138
12/17/2014 11:08:34.476,-0.557,-1.701,-0.238
12/17/2014 11:08:34.489,-0.639,-1.443,-0.287
12/17/2014 11:08:34.502,-0.61,-1.507,-0.328
12/17/2014 11:08:34.513,-0.915,-3,0.32
12/17/2014 11:08:34.526,-0.331,-2.938,0.66
12/17/2014 11:08:34.539,0.018,-1.795,0.032
12/17/2014 11:08:34.552,0.534,-1.537,0.164
12/17/2014 11:08:34.563,0.507,-0.636,0.334
12/17/2014 11:08:34.576,-0.029,0.138,0.496
12/17/2014 11:08:34.588,-0.326,0.633,0.469
12/17/2014 11:08:34.601,-0.346,0.906,0.287
12/17/2014 11:08:34.614,-0.358,0.56,0.097
12/17/2014 11:08:34.627,-0.261,-0.065,0.029
12/17/2014 11:08:34.638,-0.173,-0.003,-0.044
12/17/2014 11:08:34.651,-0.15,0.176,-0.155
12/17/2014 11:08:34.664,-0.182,0.267,-0.155
12/17/2014 11:08:34.677,-0.179,0.202,-0.038
12/17/2014 11:08:34.688,-0.226,0.044,0.07
12/17/2014 11:08:34.701,-0.132,-0.041,0.114
12/17/2014 11:08:34.713,-0.041,-0.003,0.246
12/17/2014 11:08:34.726,-0.493,-0.355,0.639
12/17/2014 11:08:34.739,-1.065,-1.053,0.994
12/17/2014 11:08:34.752,-1.05,-1.314,1.205
12/17/2014 11:08:34.763,-0.713,-2.469,0.891
12/17/2014 11:08:34.776,-0.968,-3,0.953
12/17/2014 11:08:34.789,-1.176,-3,0.971
