------------ Data File Created By ActiGraph GT3X+ ActiLife v6.11.5 Firmware v1.1.0 date format M/d/yyyy at 100 Hz  Filter Normal -----------
Serial Number: TAS1C32140067
Start Time 11:08:00
Start Date 12/17/2014
Epoch Period (hh:mm:ss) 00:00:00
Download Time 11:09:00
Download Date 12/17/2014
Current Memory Address: 0
Current Battery Voltage: 4.19     Mode = 12
--------------------------------------------------
Timestamp,Accelerometer X,Accelerometer Y,Accelerometer Z
12/17/2014 11:08:00.000,0.1313,0.1694,0.0439
12/17/2014 11:08:00.009,0.4097,0.0439,0.1001
12/17/2014 11:08:00.019,0.7051,0.0386,0.4497
12/17/2014 11:08:00.029,1.0273,0.4692,0.5576
12/17/2014 11:08:00.039,0.958,0.5625,-0.2314
12/17/2014 11:08:00.049,1.2202,0.229,-0.7456
12/17/2014 11:08:00.059,2.4829,-0.3828,-0.2881
12/17/2014 11:08:00.069,3.0088,-0.938,0.3306
12/17/2014 11:08:00.079,2.356,-0.9668,0.4341
12/17/2014 11:08:00.089,2.0698,-0.8926,0.4395
12/17/2014 11:08:00.099,2.3247,-0.4946,0.2461
12/17/2014 11:08:00.109,2.4692,-0.1958,0.0835
12/17/2014 11:08:00.119,2.4019,0.0327,0.0747
12/17/2014 11:08:00.130,2.0708,0.1172,0.0518
12/17/2014 11:08:00.140,2.0322,0.228,0.063
12/17/2014 11:08:00.150,2.0635,0.3369,-0.1172
12/17/2014 11:08:00.160,2.2139,0.2466,-0.1567
12/17/2014 11:08:00.170,2.1807,0.1035,-0.333
12/17/2014 11:08:00.180,1.9927,-0.041,-0.4512
12/17/2014 11:08:00.190,1.9087,-0.1216,-0.4058
12/17/2014 11:08:00.200,1.9238,-0.166,-0.3218
12/17/2014 11:08:00.210,1.4951,-0.0498,-0.2876
12/17/2014 11:08:00.220,1.1919,0.0908,-0.292
12/17/2014 11:08:00.230,0.7729,0.1167,-0.2593
12/17/2014 11:08:00.240,0.4932,0.1025,-0.1479
12/17/2014 11:08:00.250,0.2544,0.1133,-0.0039
12/17/2014 11:08:00.259,0.0205,0.1226,0.105
12/17/2014 11:08:00.269,-0.0991,0.084,0.2104
12/17/2014 11:08:00.279,-0.3125,0.0791,0.0884
12/17/2014 11:08:00.279,-0.5981,0.082,-0.0498
12/17/2014 11:08:00.299,-0.7227,0.1597,-0.043
12/17/2014 11:08:00.309,-0.7656,0.2505,-0.0034
12/17/2014 11:08:00.319,-0.7373,0.3179,-0.0391
12/17/2014 11:08:00.329,-0.7227,0.3086,-0.0703
12/17/2014 11:08:00.339,-0.6602,0.2168,-0.083
12/17/2014 11:08:00.349,-0.5391,0.0474,-0.0654
12/17/2014 11:08:00.359,-0.3706,-0.0225,-0.0396
12/17/2014 11:08:00.369,-0.1777,0.312,0.0098
12/17/2014 11:08:00.380,0.0518,0.73,0.3535
12/17/2014 11:08:00.390,0.2471,1.0674,0.7988
12/17/2014 11:08:00.400,0.2461,0.8506,0.5513
12/17/2014 11:08:00.410,0.689,0.6289,0.2871
12/17/2014 11:08:00.420,1.7788,0.5229,0.0459
12/17/2014 11:08:00.430,3.375,0.814,-0.4907
12/17/2014 11:08:00.440,5.4136,0.8193,-1.4312
12/17/2014 11:08:00.450,5.0088,0.8887,-1.8647
12/17/2014 11:08:00.460,3.4468,0.479,-0.3047
12/17/2014 11:08:00.470,2.5327,0.1353,0.0986
12/17/2014 11:08:00.480,1.916,-0.0815,0.1147
12/17/2014 11:08:00.490,2.0259,-0.4561,0.1904
12/17/2014 11:08:00.500,2.0776,-0.4053,0.1089
12/17/2014 11:08:00.509,2.0601,-0.4902,0.1255
12/17/2014 11:08:00.519,1.9712,-0.5601,0.0137
12/17/2014 11:08:00.529,1.7681,-0.4312,-0.0791
12/17/2014 11:08:00.539,1.5513,-0.3491,-0.1353
12/17/2014 11:08:00.549,1.2915,-0.0923,-0.1069
12/17/2014 11:08:00.559,0.9429,0.0933,-0.1216
12/17/2014 11:08:00.559,0.709,0.2583,-0.3281
12/17/2014 11:08:00.569,0.1899,0.2798,-0.2305
12/17/2014 11:08:00.589,-0.1938,0.2266,-0.042
12/17/2014 11:08:00.599,-0.6577,0.2339,0.3262
12/17/2014 11:08:00.609,-0.8203,0.3735,0.2837
12/17/2014 11:08:00.619,-1.2207,0.6938,0.0835
12/17/2014 11:08:00.630,-1.1948,0.4692,0.1099
12/17/2014 11:08:00.640,-1.1221,0.2241,0.1475
12/17/2014 11:08:00.650,-0.79,0.0205,0.2168
12/17/2014 11:08:00.660,-0.6455,-0.0835,0.123
12/17/2014 11:08:00.670,-0.7134,-0.1401,-0.0322
12/17/2014 11:08:00.680,-0.4668,0.1177,-0.0518
12/17/2014 11:08:00.690,0.0161,0.1987,0.0747
12/17/2014 11:08:00.700,0.376,0.1084,0.0898
12/17/2014 11:08:00.710,0.4033,-0.0244,-0.2012
12/17/2014 11:08:00.720,0.5835,-0.2495,-0.2363
12/17/2014 11:08:00.730,0.7778,-0.2148,0.3936
12/17/2014 11:08:00.740,1.0894,0.1294,0.7397
12/17/2014 11:08:00.750,0.8965,0.3599,0.0464
12/17/2014 11:08:00.759,1.0645,0.2192,-0.6406
12/17/2014 11:08:00.769,2.0801,-0.3047,-0.4966
12/17/2014 11:08:00.779,2.6309,-0.5508,0.2769
12/17/2014 11:08:00.789,2.3125,-0.4712,0.4556
12/17/2014 11:08:00.799,2.4595,-0.5132,0.436
12/17/2014 11:08:00.809,2.7886,-0.2734,0.126
12/17/2014 11:08:00.819,2.6738,-5e-04,-0.127
12/17/2014 11:08:00.829,2.4502,0.27,-0.0898
12/17/2014 11:08:00.839,2.0791,0.4092,0.0088
12/17/2014 11:08:00.849,1.9819,0.522,0.0103
12/17/2014 11:08:00.859,2.1616,0.6064,-0.0479
12/17/2014 11:08:00.869,2.3169,0.5596,-0.1782
12/17/2014 11:08:00.880,2.2622,0.3408,-0.3706
12/17/2014 11:08:00.890,2.1763,0.1606,-0.5024
12/17/2014 11:08:00.900,1.9697,-0.0547,-0.519
12/17/2014 11:08:00.910,1.8081,-0.1733,-0.374
12/17/2014 11:08:00.920,1.4478,-0.3276,-0.291
12/17/2014 11:08:00.930,1.0874,-0.0713,-0.2852
12/17/2014 11:08:00.940,0.6841,0.0439,-0.2739
12/17/2014 11:08:00.950,0.4448,0.0205,-0.1338
12/17/2014 11:08:00.960,0.1255,-0.0835,0.0303
12/17/2014 11:08:00.970,-0.1108,-0.1367,0.1606
12/17/2014 11:08:00.980,-0.252,-0.0635,0.1987
12/17/2014 11:08:00.990,-0.4478,0.0327,0.1665
12/17/2014 11:08:01.000,-0.5957,0.0444,0.0513
12/17/2014 11:08:01.009,-0.6719,0.0801,0.1328
12/17/2014 11:08:01.019,-0.6787,0.0933,0.1484
12/17/2014 11:08:01.029,-0.6626,0.1655,0.041
12/17/2014 11:08:01.039,-0.6167,0.1509,0.0273
12/17/2014 11:08:01.049,-0.5342,0.02,0.0562
12/17/2014 11:08:01.059,-0.4365,-0.1548,0.0669
12/17/2014 11:08:01.069,-0.291,-0.3052,0.0967
12/17/2014 11:08:01.079,-0.1479,-0.3335,0.1279
12/17/2014 11:08:01.089,-0.0635,0.1411,0.126
12/17/2014 11:08:01.099,0.2769,0.6235,0.6792
12/17/2014 11:08:01.109,0.3115,0.7412,0.8877
12/17/2014 11:08:01.119,0.5762,0.542,0.5591
12/17/2014 11:08:01.119,1.4604,0.3032,0.2251
12/17/2014 11:08:01.130,3.0151,0.5112,-0.5513
12/17/2014 11:08:01.140,4.4624,0.8389,-0.9692
12/17/2014 11:08:01.150,4.7056,1.1523,-1.5361
12/17/2014 11:08:01.170,3.5098,1.0737,-0.7759
12/17/2014 11:08:01.180,2.6479,0.6646,0.2876
12/17/2014 11:08:01.190,2.1196,0.3486,-0.0083
12/17/2014 11:08:01.200,2.0801,-0.0337,-0.1426
12/17/2014 11:08:01.210,2.2822,-0.3643,-0.0718
12/17/2014 11:08:01.220,2.394,-0.4775,-0.1162
12/17/2014 11:08:01.230,2.3799,-0.4346,-0.0859
12/17/2014 11:08:01.240,2.1885,-0.416,-0.0977
12/17/2014 11:08:01.250,1.7671,-0.4312,-0.1084
12/17/2014 11:08:01.259,1.5054,-0.3403,-0.1182
12/17/2014 11:08:01.269,1.2202,-0.0312,-0.0405
12/17/2014 11:08:01.279,0.8159,0.1528,0.0894
12/17/2014 11:08:01.289,0.4902,0.4272,-0.0366
12/17/2014 11:08:01.299,0.1343,0.4136,-0.0586
12/17/2014 11:08:01.309,-0.1577,0.1646,0.0654
12/17/2014 11:08:01.319,-0.4858,0.1348,0.1533
12/17/2014 11:08:01.329,-0.7378,0.4282,0.2363
12/17/2014 11:08:01.339,-1.1997,0.4189,0.2144
12/17/2014 11:08:01.349,-1.4678,0.6802,0.2383
12/17/2014 11:08:01.359,-1.5693,0.5005,-0.0063
12/17/2014 11:08:01.369,-1.2031,-0.0757,-0.0728
12/17/2014 11:08:01.380,-0.6299,-0.3364,-0.0352
12/17/2014 11:08:01.390,-0.2778,-0.3071,-0.0303
12/17/2014 11:08:01.400,-0.1738,-0.1113,-0.0547
12/17/2014 11:08:01.410,0.0054,0.1099,-0.0137
12/17/2014 11:08:01.420,0.2568,0.2407,0.1216
12/17/2014 11:08:01.430,0.4727,0.1582,0.0586
12/17/2014 11:08:01.440,0.4707,0.0117,-0.3203
12/17/2014 11:08:01.450,0.855,-0.1655,0.022
12/17/2014 11:08:01.460,1.3086,0.0303,1.0054
12/17/2014 11:08:01.470,1.5044,0.5859,0.7075
12/17/2014 11:08:01.480,1.125,0.791,-0.6353
12/17/2014 11:08:01.490,2.2378,0.4048,-1.1167
12/17/2014 11:08:01.500,2.8154,-0.7085,-0.0146
12/17/2014 11:08:01.509,2.3496,-0.458,0.4307
12/17/2014 11:08:01.519,1.7827,-0.1821,0.4683
12/17/2014 11:08:01.529,2.0708,-0.186,0.6567
12/17/2014 11:08:01.539,2.0522,0.1499,0.1816
12/17/2014 11:08:01.549,2.228,0.292,-0.0063
12/17/2014 11:08:01.559,2.0854,0.4326,-0.0713
12/17/2014 11:08:01.569,1.9619,0.3823,-0.0415
12/17/2014 11:08:01.579,2.0698,0.4331,-0.0039
12/17/2014 11:08:01.589,2.1992,0.4741,-0.0771
12/17/2014 11:08:01.599,2.3408,0.3154,-0.1328
12/17/2014 11:08:01.609,2.2983,0.0684,-0.2803
12/17/2014 11:08:01.619,2.0938,-0.209,-0.4775
12/17/2014 11:08:01.630,1.9673,-0.1655,-0.4263
12/17/2014 11:08:01.640,1.6904,-0.3335,-0.355
12/17/2014 11:08:01.650,1.5391,-0.6821,-0.2998
12/17/2014 11:08:01.660,1.1494,-0.7637,-0.1548
12/17/2014 11:08:01.670,0.6294,-0.4023,-0.1797
12/17/2014 11:08:01.680,0.083,-0.3247,-0.0034
12/17/2014 11:08:01.690,-0.1284,-0.147,0.21
12/17/2014 11:08:01.700,-0.2549,0.0386,0.2432
12/17/2014 11:08:01.710,-0.3301,0.23,0.1768
12/17/2014 11:08:01.720,-0.3325,0.4927,0.0933
12/17/2014 11:08:01.730,-0.5571,0.3447,-0.1494
12/17/2014 11:08:01.740,-0.4902,0.1597,-0.1436
12/17/2014 11:08:01.750,-0.3877,0.1797,-0.0884
12/17/2014 11:08:01.759,-0.3901,0.231,-0.0508
12/17/2014 11:08:01.769,-0.3809,0.2876,0.0435
12/17/2014 11:08:01.779,-0.3467,0.2959,0.165
12/17/2014 11:08:01.789,-0.3027,0.1978,0.2822
12/17/2014 11:08:01.799,-0.2598,0.0151,0.2798
12/17/2014 11:08:01.809,-0.2041,-0.1074,0.1846
12/17/2014 11:08:01.819,-0.0991,0.0693,0.1436
12/17/2014 11:08:01.829,0.1138,0.5713,0.3794
12/17/2014 11:08:01.839,0.4414,0.7178,0.9868
12/17/2014 11:08:01.849,0.1968,0.7114,0.2896
12/17/2014 11:08:01.859,1.0938,0.3228,0.2866
12/17/2014 11:08:01.869,2.4111,0.667,-0.4829
12/17/2014 11:08:01.880,3.9722,0.9448,-0.8442
12/17/2014 11:08:01.890,5.0054,0.9443,-1.1748
12/17/2014 11:08:01.900,3.728,1.1538,-1.3066
12/17/2014 11:08:01.910,3.2739,0.7729,0.061
12/17/2014 11:08:01.920,2.6475,0.0898,0.0781
12/17/2014 11:08:01.930,2.2466,-0.2095,-0.1743
12/17/2014 11:08:01.940,2.2261,-0.4531,-0.2427
12/17/2014 11:08:01.950,2.1782,-0.5083,-0.0771
12/17/2014 11:08:01.960,2.1606,-0.3535,-0.0361
12/17/2014 11:08:01.970,2.1855,-0.4487,0.0547
12/17/2014 11:08:01.980,1.9155,-0.4111,0.021
12/17/2014 11:08:01.990,1.6152,-0.2744,0.0132
12/17/2014 11:08:02.000,1.2759,0.001,-0.0146
12/17/2014 11:08:02.000,0.8877,0.1851,-0.0244
12/17/2014 11:08:02.019,0.5444,0.3384,-0.166
12/17/2014 11:08:02.019,0.3154,0.4141,-0.2246
12/17/2014 11:08:02.039,-0.0269,0.1401,-0.001
12/17/2014 11:08:02.039,-0.3599,0.2446,0.0806
12/17/2014 11:08:02.059,-0.4551,0.2173,0.1538
12/17/2014 11:08:02.059,-0.7393,0.3481,0.1982
12/17/2014 11:08:02.079,-1.3149,0.3892,0.0664
12/17/2014 11:08:02.089,-1.3257,0.1812,-0.0718
12/17/2014 11:08:02.099,-1.1196,-0.105,0.0146
12/17/2014 11:08:02.109,-0.6025,-0.1704,0.1587
12/17/2014 11:08:02.119,-0.3423,-0.1914,0.1123
12/17/2014 11:08:02.130,-0.313,-0.0815,-0.0205
12/17/2014 11:08:02.140,-0.1831,0.0562,0.0029
12/17/2014 11:08:02.150,0.0859,0.1216,0.1548
12/17/2014 11:08:02.160,0.3081,0.1406,0.1416
12/17/2014 11:08:02.170,0.4463,0.0605,-0.124
12/17/2014 11:08:02.180,0.6973,-0.2183,-0.1411
12/17/2014 11:08:02.190,0.9277,-0.1553,0.394
12/17/2014 11:08:02.200,1.5425,0.1357,0.8193
12/17/2014 11:08:02.210,0.937,0.4668,0.4106
12/17/2014 11:08:02.220,1.4927,0.5522,-0.4248
12/17/2014 11:08:02.230,2.5474,-0.0444,-0.478
12/17/2014 11:08:02.240,3.8403,-0.6284,0.0063
12/17/2014 11:08:02.250,3.0283,-0.5728,0.001
12/17/2014 11:08:02.250,2.4741,0.0293,0.0703
12/17/2014 11:08:02.269,1.9927,0.2827,0.0156
12/17/2014 11:08:02.269,1.8379,0.2954,0.1367
12/17/2014 11:08:02.289,1.6738,0.3398,0.1172
12/17/2014 11:08:02.289,1.71,0.3232,0.0259
12/17/2014 11:08:02.309,2.1519,0.4253,-0.0547
12/17/2014 11:08:02.309,2.4692,0.3467,-0.2617
12/17/2014 11:08:02.329,2.6914,0.2329,-0.541
12/17/2014 11:08:02.339,2.4121,-0.105,-0.6504
12/17/2014 11:08:02.349,2.0308,-0.3291,-0.6099
12/17/2014 11:08:02.359,1.6787,-0.501,-0.3589
12/17/2014 11:08:02.369,1.2598,-0.4165,-0.2417
12/17/2014 11:08:02.380,0.8853,-0.3979,-0.1484
12/17/2014 11:08:02.390,0.5308,-0.2607,0.0093
12/17/2014 11:08:02.400,0.2085,-0.1704,0.1304
12/17/2014 11:08:02.410,-0.1387,-0.0776,0.2041
12/17/2014 11:08:02.420,-0.3286,0.1045,0.1172
12/17/2014 11:08:02.430,-0.3828,0.1606,0.062
12/17/2014 11:08:02.440,-0.4624,0.0898,0.0244
12/17/2014 11:08:02.450,-0.543,0.1274,0.0786
12/17/2014 11:08:02.460,-0.6187,0.2275,0.1387
12/17/2014 11:08:02.470,-0.6323,0.3047,0.0981
12/17/2014 11:08:02.480,-0.6538,0.3335,0.0713
12/17/2014 11:08:02.490,-0.6416,0.2808,0.0327
12/17/2014 11:08:02.500,-0.5356,0.126,0.0171
12/17/2014 11:08:02.500,-0.4014,-0.0386,-0.0234
12/17/2014 11:08:02.519,-0.1763,-0.0771,0.0044
12/17/2014 11:08:02.519,-0.063,0.0229,0.0435
12/17/2014 11:08:02.539,-0.021,0.4189,0.0835
12/17/2014 11:08:02.539,0.4297,0.7876,0.5215
12/17/2014 11:08:02.559,0.606,0.8818,0.9995
12/17/2014 11:08:02.569,0.7329,0.8384,0.4487
12/17/2014 11:08:02.579,1.8809,0.397,-0.0239
12/17/2014 11:08:02.589,3.4604,0.4917,-0.7148
12/17/2014 11:08:02.599,4.6753,0.7036,-1.2168
12/17/2014 11:08:02.609,4.1758,0.9619,-1.3286
12/17/2014 11:08:02.619,3.4097,0.6821,-0.0513
12/17/2014 11:08:02.630,2.7964,0.2432,0.1104
12/17/2014 11:08:02.640,2.4443,-0.2432,-0.2373
12/17/2014 11:08:02.650,2.4448,-0.6401,-0.1733
12/17/2014 11:08:02.660,2.3755,-0.6382,-0.0703
12/17/2014 11:08:02.670,2.2383,-0.6025,0.0386
12/17/2014 11:08:02.680,2.1733,-0.6172,0.0654
12/17/2014 11:08:02.690,1.8716,-0.522,0.0337
12/17/2014 11:08:02.700,1.5801,-0.2134,0.0449
12/17/2014 11:08:02.710,1.2842,0.0117,0.0044
12/17/2014 11:08:02.720,0.9023,0.1392,-0.0171
12/17/2014 11:08:02.730,0.6958,0.3291,-0.0981
12/17/2014 11:08:02.740,0.3032,0.2915,-0.0908
12/17/2014 11:08:02.750,0.02,0.4209,-0.21
12/17/2014 11:08:02.759,-0.3296,0.1284,-0.0298
12/17/2014 11:08:02.769,-0.479,-0.0391,0.1182
12/17/2014 11:08:02.779,-0.832,-0.1626,0.3765
12/17/2014 11:08:02.789,-1.0215,0.1641,0.3882
12/17/2014 11:08:02.799,-1.3232,0.291,0.0381
12/17/2014 11:08:02.809,-1.1152,0.0474,-0.0273
12/17/2014 11:08:02.819,-0.6504,-0.1426,0.0864
12/17/2014 11:08:02.829,-0.4438,-0.1665,0.0605
12/17/2014 11:08:02.839,-0.5825,0.0044,-0.1187
12/17/2014 11:08:02.849,-0.3364,0.1499,-0.0073
12/17/2014 11:08:02.859,0.0776,0.1357,0.2451
12/17/2014 11:08:02.869,0.2222,0.0601,-0.0186
12/17/2014 11:08:02.880,0.4194,-0.0166,-0.0552
12/17/2014 11:08:02.890,0.9307,-0.083,0.5552
12/17/2014 11:08:02.900,1.6562,0.3604,0.9932
12/17/2014 11:08:02.910,1.167,0.6724,0.1104
12/17/2014 11:08:02.920,1.6646,0.5625,-0.918
12/17/2014 11:08:02.930,2.8003,-0.3369,-0.6963
12/17/2014 11:08:02.940,3.5117,-1.0322,0.2803
12/17/2014 11:08:02.950,2.4839,-0.7007,0.1812
12/17/2014 11:08:02.960,2.3027,-0.4775,0.2808
12/17/2014 11:08:02.970,2.0801,-0.0249,0.1025
12/17/2014 11:08:02.980,2.1079,0.1777,0.0981
12/17/2014 11:08:02.990,1.9736,0.1689,0.0278
12/17/2014 11:08:03.000,1.8862,0.2124,0.0112
12/17/2014 11:08:03.009,2.0024,0.4023,-0.0337
12/17/2014 11:08:03.019,2.2695,0.4844,-0.1377
12/17/2014 11:08:03.029,2.418,0.3462,-0.3447
12/17/2014 11:08:03.039,2.2529,0.1665,-0.5625
12/17/2014 11:08:03.049,1.9648,-0.2085,-0.4678
12/17/2014 11:08:03.059,1.8384,-0.4487,-0.4512
12/17/2014 11:08:03.069,1.5029,-0.582,-0.29
12/17/2014 11:08:03.079,1.0806,-0.5176,-0.1489
12/17/2014 11:08:03.089,0.7412,-0.3564,-0.0864
12/17/2014 11:08:03.099,0.3052,-0.3774,0.0508
12/17/2014 11:08:03.109,-0.0054,-0.3188,0.0967
12/17/2014 11:08:03.119,-0.332,-0.0635,0.0947
12/17/2014 11:08:03.130,-0.5137,0.1875,0.0513
12/17/2014 11:08:03.140,-0.5503,0.3516,0.041
12/17/2014 11:08:03.150,-0.6226,0.2954,0.0469
12/17/2014 11:08:03.160,-0.7212,0.2397,0.022
12/17/2014 11:08:03.170,-0.75,0.2129,0.0322
12/17/2014 11:08:03.180,-0.7783,0.2183,0.0127
12/17/2014 11:08:03.190,-0.6714,0.21,0.0293
12/17/2014 11:08:03.200,-0.436,0.1719,0.0879
12/17/2014 11:08:03.210,-0.2852,0.1362,0.0693
12/17/2014 11:08:03.220,-0.1665,0.1245,0.0845
12/17/2014 11:08:03.230,-0.125,0.1914,0.0889
12/17/2014 11:08:03.240,-0.0596,0.4844,0.2017
12/17/2014 11:08:03.250,0.4521,0.9351,0.5767
12/17/2014 11:08:03.259,0.5674,0.8452,1.0093
12/17/2014 11:08:03.269,0.813,0.7588,0.4199
12/17/2014 11:08:03.279,2.125,0.2798,0.0991
12/17/2014 11:08:03.289,3.5869,0.5308,-0.7344
12/17/2014 11:08:03.299,4.3096,0.7197,-1.3184
12/17/2014 11:08:03.309,3.7656,0.9658,-1.2925
12/17/2014 11:08:03.319,3.2236,0.6963,0.0024
12/17/2014 11:08:03.329,2.6821,0.2837,0.3311
12/17/2014 11:08:03.339,2.3804,-0.1538,-0.0884
12/17/2014 11:08:03.349,2.271,-0.7144,-0.1411
12/17/2014 11:08:03.359,2.1763,-0.9077,0.0225
12/17/2014 11:08:03.369,2.0718,-0.771,0.0156
12/17/2014 11:08:03.380,2.2148,-0.6484,-0.0215
12/17/2014 11:08:03.390,1.9434,-0.6104,-0.1108
12/17/2014 11:08:03.400,1.7495,-0.4604,-0.1323
12/17/2014 11:08:03.410,1.5254,-0.0889,-0.0332
12/17/2014 11:08:03.420,1.1846,0.2192,0.0698
12/17/2014 11:08:03.430,0.875,0.3213,0.0732
12/17/2014 11:08:03.440,0.5078,0.1885,0.063
12/17/2014 11:08:03.450,0.3062,0.4805,-0.1865
12/17/2014 11:08:03.460,-0.3735,0.3154,-0.1313
12/17/2014 11:08:03.470,-0.2759,0.1274,0.042
12/17/2014 11:08:03.480,-0.4893,0.0938,0.1064
12/17/2014 11:08:03.490,-0.7041,-0.001,0.311
12/17/2014 11:08:03.500,-1.0098,0.2324,0.2329
12/17/2014 11:08:03.509,-1.2119,0.1812,-0.001
12/17/2014 11:08:03.519,-0.9937,-0.0454,0.0322
12/17/2014 11:08:03.529,-0.5713,-0.1865,0.1885
12/17/2014 11:08:03.539,-0.4409,-0.1616,0.0879
12/17/2014 11:08:03.549,-0.6221,0.0361,-0.126
12/17/2014 11:08:03.559,-0.3428,0.1475,0.0635
12/17/2014 11:08:03.569,-0.02,0.0996,0.0981
12/17/2014 11:08:03.579,0.2231,-0.0435,-0.0298
12/17/2014 11:08:03.589,0.6143,-0.1987,0.1938
12/17/2014 11:08:03.599,1.1084,-0.0234,0.8584
12/17/2014 11:08:03.609,1.3442,0.4668,0.625
12/17/2014 11:08:03.619,0.9722,0.4673,-0.1338
12/17/2014 11:08:03.630,1.8696,0.0342,-1.0601
12/17/2014 11:08:03.640,3.5488,-0.9951,-0.0977
12/17/2014 11:08:03.650,3.6372,-1.2471,0.4526
12/17/2014 11:08:03.660,2.7256,-0.8213,-0.0664
12/17/2014 11:08:03.670,2.25,-0.0273,-0.2881
12/17/2014 11:08:03.680,2.0078,0.2676,-0.1074
12/17/2014 11:08:03.690,1.7686,0.3457,-0.0938
12/17/2014 11:08:03.700,1.6055,0.3071,-0.0298
12/17/2014 11:08:03.710,1.8057,0.4121,-0.0571
12/17/2014 11:08:03.720,2.21,0.5708,-0.1821
12/17/2014 11:08:03.730,2.3555,0.5068,-0.3628
12/17/2014 11:08:03.740,2.4443,0.3394,-0.5283
12/17/2014 11:08:03.750,2.2529,-0.0181,-0.5898
12/17/2014 11:08:03.759,2.1577,-0.3999,-0.5083
12/17/2014 11:08:03.769,1.7412,-0.5742,-0.2856
12/17/2014 11:08:03.779,1.2729,-0.4077,-0.2451
12/17/2014 11:08:03.789,0.9204,-0.3823,-0.1016
12/17/2014 11:08:03.799,0.4111,-0.5859,0.0132
12/17/2014 11:08:03.809,0.061,-0.3228,0.145
12/17/2014 11:08:03.819,-0.2915,-0.0913,0.1157
12/17/2014 11:08:03.829,-0.395,0.144,0.1069
12/17/2014 11:08:03.839,-0.4019,0.3442,0.0312
12/17/2014 11:08:03.849,-0.4985,0.2686,-0.0195
12/17/2014 11:08:03.859,-0.6006,0.2974,-0.0142
12/17/2014 11:08:03.869,-0.6055,0.3086,0.0244
12/17/2014 11:08:03.880,-0.6274,0.2764,0.0298
12/17/2014 11:08:03.890,-0.6187,0.2466,0.0229
12/17/2014 11:08:03.900,-0.5347,0.1157,0.1021
12/17/2014 11:08:03.910,-0.3818,-0.0171,0.1309
12/17/2014 11:08:03.920,-0.1997,-0.0542,0.1343
12/17/2014 11:08:03.930,-0.0435,-0.0269,0.1206
12/17/2014 11:08:03.940,-0.0342,0.2173,0.0625
12/17/2014 11:08:03.950,0.231,0.6479,0.2925
12/17/2014 11:08:03.960,0.4922,1.0786,0.8994
12/17/2014 11:08:03.970,0.6147,1.1655,0.4624
12/17/2014 11:08:03.980,1.3433,0.4482,0.2119
12/17/2014 11:08:03.990,2.7021,0.4746,-0.5562
12/17/2014 11:08:04.000,4.166,0.5771,-0.9795
12/17/2014 11:08:04.009,4.5044,1.0933,-1.4058
12/17/2014 11:08:04.009,3.4106,1.1201,-0.7646
12/17/2014 11:08:04.029,2.918,0.624,0.3794
12/17/2014 11:08:04.039,2.4482,0.144,0.0483
12/17/2014 11:08:04.049,2.2808,-0.3799,-0.2593
12/17/2014 11:08:04.049,2.3081,-0.5957,-0.1357
12/17/2014 11:08:04.069,2.1362,-0.6177,0.002
12/17/2014 11:08:04.079,2.1885,-0.6997,0.0747
12/17/2014 11:08:04.089,2.0498,-0.7534,0.0991
12/17/2014 11:08:04.089,1.8257,-0.7231,0.0728
12/17/2014 11:08:04.109,1.5264,-0.4199,0.062
12/17/2014 11:08:04.119,1.1562,-0.0615,0.0308
12/17/2014 11:08:04.130,0.8193,0.0942,-0.0312
12/17/2014 11:08:04.130,0.4087,0.2061,-0.0693
12/17/2014 11:08:04.150,0.1792,0.3184,-0.0376
12/17/2014 11:08:04.160,-0.0928,0.188,0.0576
12/17/2014 11:08:04.170,-0.3521,0.0986,0.0522
12/17/2014 11:08:04.180,-0.5625,0.1626,0.1797
12/17/2014 11:08:04.190,-1.0039,0.3335,0.1787
12/17/2014 11:08:04.200,-1.2251,0.3232,0.1411
12/17/2014 11:08:04.210,-1.3013,0.2271,0.0195
12/17/2014 11:08:04.220,-0.9673,0.0098,0.1543
12/17/2014 11:08:04.230,-0.5513,-0.0127,0.1733
12/17/2014 11:08:04.240,-0.5537,0.0269,-0.0146
12/17/2014 11:08:04.250,-0.6147,0.1094,-0.1851
12/17/2014 11:08:04.259,-0.2495,0.2886,-0.1396
12/17/2014 11:08:04.259,0.3564,0.2202,0.0649
12/17/2014 11:08:04.279,0.6187,0.0376,-0.1118
12/17/2014 11:08:04.289,0.7368,-0.1602,-0.1885
12/17/2014 11:08:04.299,0.853,-0.0894,0.5439
12/17/2014 11:08:04.299,1.4941,0.2739,0.8472
12/17/2014 11:08:04.319,0.8052,0.5239,-0.084
12/17/2014 11:08:04.329,1.6611,0.4233,-0.9897
12/17/2014 11:08:04.339,2.7554,-0.3164,-0.333
12/17/2014 11:08:04.339,2.9204,-0.6626,0.3882
12/17/2014 11:08:04.359,2.4248,-0.1611,-0.0059
12/17/2014 11:08:04.369,2.4888,-0.2344,0.3467
12/17/2014 11:08:04.380,2.25,-0.1479,0.1577
12/17/2014 11:08:04.380,2.1641,0.0063,0.2163
12/17/2014 11:08:04.400,2.0693,0.0381,0.2139
12/17/2014 11:08:04.410,1.9121,0.0181,0.1997
12/17/2014 11:08:04.420,1.9258,0.0942,0.1333
12/17/2014 11:08:04.430,2.1558,-0.0063,-0.02
12/17/2014 11:08:04.440,2.4155,-0.0659,-0.1978
12/17/2014 11:08:04.450,2.4409,-0.3848,-0.4673
12/17/2014 11:08:04.460,2.4233,-0.584,-0.4922
12/17/2014 11:08:04.470,2.1421,-0.5127,-0.3105
12/17/2014 11:08:04.480,1.5913,-0.5874,-0.2378
12/17/2014 11:08:04.490,1.188,-0.3154,-0.2544
12/17/2014 11:08:04.500,0.7397,-0.1426,-0.1113
12/17/2014 11:08:04.509,0.2495,-0.2007,0.0806
12/17/2014 11:08:04.509,-0.0762,0.0962,0.2329
12/17/2014 11:08:04.529,-0.3042,0.2993,0.1787
12/17/2014 11:08:04.539,-0.4033,0.4888,0.0132
12/17/2014 11:08:04.549,-0.3853,0.4009,-0.0928
12/17/2014 11:08:04.549,-0.4873,0.2007,-0.1855
12/17/2014 11:08:04.569,-0.6094,0.1357,-0.0825
12/17/2014 11:08:04.579,-0.7251,0.1616,0.0059
12/17/2014 11:08:04.589,-0.7896,0.1621,0.0088
12/17/2014 11:08:04.589,-0.8071,0.1138,0.0405
12/17/2014 11:08:04.609,-0.7334,0.0044,0.0918
12/17/2014 11:08:04.619,-0.5815,-0.0874,0.1079
12/17/2014 11:08:04.630,-0.3296,-0.0449,0.1074
12/17/2014 11:08:04.630,-0.1152,0.1006,0.1147
12/17/2014 11:08:04.650,0.0332,0.4834,0.2236
12/17/2014 11:08:04.660,0.4844,0.8936,0.5957
12/17/2014 11:08:04.670,0.5635,0.8877,0.4648
12/17/2014 11:08:04.680,0.9102,1.0151,-0.0454
12/17/2014 11:08:04.690,2.1836,0.7134,-0.4014
12/17/2014 11:08:04.700,4.7173,0.9536,-0.667
12/17/2014 11:08:04.710,5.186,1.2798,-1.4585
12/17/2014 11:08:04.720,3.4658,1.0479,-1.1313
12/17/2014 11:08:04.730,2.791,0.5684,0.2227
12/17/2014 11:08:04.740,2.3477,0.1821,0.1636
12/17/2014 11:08:04.750,2.2139,-0.2778,-0.0332
12/17/2014 11:08:04.759,2.3667,-0.5273,-0.0073
12/17/2014 11:08:04.759,2.27,-0.6606,0.0244
12/17/2014 11:08:04.779,2.3076,-0.7871,0.0225
12/17/2014 11:08:04.789,2.2368,-0.877,0.0112
12/17/2014 11:08:04.799,1.8691,-0.8608,-0.0913
12/17/2014 11:08:04.799,1.6123,-0.5947,-0.0918
12/17/2014 11:08:04.819,1.248,-0.2925,-0.0176
12/17/2014 11:08:04.829,0.8369,-0.0962,-0.0464
12/17/2014 11:08:04.839,0.353,0.0088,-0.019
12/17/2014 11:08:04.839,-0.0146,0.061,0.0688
12/17/2014 11:08:04.859,-0.3052,-0.1157,0.3418
12/17/2014 11:08:04.869,-0.5117,0.0532,0.395
12/17/2014 11:08:04.880,-0.8877,0.1475,0.4668
12/17/2014 11:08:04.880,-1.085,0.6011,0.2935
12/17/2014 11:08:04.900,-1.5283,0.522,0.1221
12/17/2014 11:08:04.910,-1.1035,0.2539,0.0674
12/17/2014 11:08:04.920,-0.7954,0.0889,-0.0024
12/17/2014 11:08:04.930,-0.5713,-0.1714,-0.0112
12/17/2014 11:08:04.940,-0.5488,-0.0996,-0.105
12/17/2014 11:08:04.950,-0.498,0.2588,-0.1533
12/17/2014 11:08:04.960,-0.001,0.1875,0.0957
12/17/2014 11:08:04.970,0.4067,0.0728,-0.0576
12/17/2014 11:08:04.980,0.6685,-0.0552,-0.2725
12/17/2014 11:08:04.990,0.8525,-0.1172,0.1958
12/17/2014 11:08:05.000,1.1528,0.0342,0.9292
12/17/2014 11:08:05.009,1.0317,0.5493,0.1362
12/17/2014 11:08:05.009,0.7544,0.5913,-0.6523
12/17/2014 11:08:05.029,2.0112,-0.063,-0.5503
12/17/2014 11:08:05.039,2.7349,-0.7192,0.3794
12/17/2014 11:08:05.049,2.4458,-0.5225,0.6221
12/17/2014 11:08:05.049,2.6318,-0.6357,0.4487
12/17/2014 11:08:05.069,3.0161,-0.5229,-0.0562
12/17/2014 11:08:05.079,2.8672,-0.1934,-0.2026
12/17/2014 11:08:05.089,2.4556,0.0776,-0.1929
12/17/2014 11:08:05.089,2.0557,0.1206,0.0054
12/17/2014 11:08:05.109,2.0259,0.2739,0.0024
12/17/2014 11:08:05.119,2.0039,0.3218,-0.1089
12/17/2014 11:08:05.130,2.209,0.1821,-0.3188
12/17/2014 11:08:05.140,2.3623,0.0703,-0.4004
12/17/2014 11:08:05.150,2.1401,-0.1802,-0.4487
12/17/2014 11:08:05.160,1.897,0.0864,-0.3315
12/17/2014 11:08:05.170,1.4453,0.2759,-0.311
12/17/2014 11:08:05.180,1.064,0.2788,-0.3354
12/17/2014 11:08:05.190,0.7617,0.1724,-0.2207
12/17/2014 11:08:05.200,0.478,0.1602,-0.0669
12/17/2014 11:08:05.210,0.1431,0.1836,0.022
12/17/2014 11:08:05.220,-0.1592,0.2222,0.0371
12/17/2014 11:08:05.230,-0.2959,0.1606,0.0752
12/17/2014 11:08:05.240,-0.5371,0.1128,-0.0293
12/17/2014 11:08:05.250,-0.7339,0.1392,-0.0444
12/17/2014 11:08:05.259,-0.8105,0.2212,-0.0034
12/17/2014 11:08:05.269,-0.7686,0.3281,0.0327
12/17/2014 11:08:05.279,-0.6895,0.4072,-0.022
12/17/2014 11:08:05.289,-0.6196,0.4541,-0.0132
12/17/2014 11:08:05.299,-0.6147,0.3828,-0.0249
12/17/2014 11:08:05.309,-0.5591,0.2334,-0.0293
12/17/2014 11:08:05.319,-0.4238,0.0806,-0.0127
12/17/2014 11:08:05.329,-0.2129,0.1401,-0.0151
12/17/2014 11:08:05.339,-0.0972,0.3745,0.042
12/17/2014 11:08:05.349,0.1279,0.8975,0.1948
12/17/2014 11:08:05.359,0.3862,1.2944,0.8257
12/17/2014 11:08:05.369,0.3623,1.3594,0.375
12/17/2014 11:08:05.380,0.9263,0.98,0.0938
12/17/2014 11:08:05.390,2.3062,1.0537,-0.3813
12/17/2014 11:08:05.400,3.8135,1.1343,-0.8232
12/17/2014 11:08:05.410,4.9839,0.8931,-1.4551
12/17/2014 11:08:05.420,4.1772,0.6943,-1.3047
12/17/2014 11:08:05.430,3.2344,0.0308,-0.0371
12/17/2014 11:08:05.440,2.5801,-0.437,-0.0337
12/17/2014 11:08:05.450,2.3696,-0.8755,-0.126
12/17/2014 11:08:05.460,2.6392,-1.019,0.0347
12/17/2014 11:08:05.470,2.4604,-0.9419,0.1455
12/17/2014 11:08:05.480,2.4971,-1.0771,0.2065
12/17/2014 11:08:05.490,2.1611,-0.9702,0.0337
12/17/2014 11:08:05.500,1.5601,-0.645,-0.2715
12/17/2014 11:08:05.509,1.2671,-0.2598,-0.354
12/17/2014 11:08:05.519,1.0186,-0.1133,-0.1372
12/17/2014 11:08:05.529,0.7778,-0.0752,0.0889
12/17/2014 11:08:05.539,0.5796,0.1396,-0.0801
12/17/2014 11:08:05.549,0.1396,0.1396,-0.1025
12/17/2014 11:08:05.559,-0.2656,0.1074,0.0688
12/17/2014 11:08:05.569,-0.5151,0.2646,0.3584
12/17/2014 11:08:05.579,-0.9473,0.5615,0.3936
12/17/2014 11:08:05.589,-1.5625,0.6865,0.2002
12/17/2014 11:08:05.599,-1.4927,0.4238,0.0083
12/17/2014 11:08:05.609,-0.96,0.1206,0.1299
12/17/2014 11:08:05.619,-0.6689,0.1479,0.0508
12/17/2014 11:08:05.630,-0.6533,0.0361,0
12/17/2014 11:08:05.640,-0.7158,0.041,-0.1079
12/17/2014 11:08:05.650,-0.3101,0.1562,0.0376
12/17/2014 11:08:05.660,0.0884,0.1997,0.1841
12/17/2014 11:08:05.670,0.2681,0.0537,0.0483
12/17/2014 11:08:05.680,0.3179,-0.0098,-0.1865
12/17/2014 11:08:05.690,0.7876,-0.0156,0.2964
12/17/2014 11:08:05.700,1.1987,0.2241,0.6885
12/17/2014 11:08:05.710,0.9941,0.5479,0.0518
12/17/2014 11:08:05.720,0.6294,0.6919,-0.5781
12/17/2014 11:08:05.730,2.0273,0.0996,-0.6333
12/17/2014 11:08:05.740,2.9214,-0.668,0.333
12/17/2014 11:08:05.750,2.3003,-0.7949,0.6772
12/17/2014 11:08:05.759,2.4624,-1.0166,0.4038
12/17/2014 11:08:05.769,2.8042,-0.8721,-0.063
12/17/2014 11:08:05.779,2.7988,-0.3755,-0.2998
12/17/2014 11:08:05.789,2.6895,-0.1533,-0.4287
12/17/2014 11:08:05.799,2.2983,-0.0356,-0.2891
12/17/2014 11:08:05.809,2.1509,0.1084,-0.2065
12/17/2014 11:08:05.819,2.0977,0.0957,-0.2754
12/17/2014 11:08:05.829,2.1108,0.3115,-0.457
12/17/2014 11:08:05.839,2.0825,0.2241,-0.6143
12/17/2014 11:08:05.849,1.9229,0.1021,-0.5996
12/17/2014 11:08:05.859,1.7158,0.2783,-0.3726
12/17/2014 11:08:05.869,1.502,0.2847,-0.3784
12/17/2014 11:08:05.880,1.3369,0.249,-0.3608
12/17/2014 11:08:05.890,0.9331,0.1123,-0.27
12/17/2014 11:08:05.900,0.5308,0.104,-0.1855
12/17/2014 11:08:05.910,0.229,0.106,-0.0698
12/17/2014 11:08:05.920,-0.0874,0.1206,-0.0142
12/17/2014 11:08:05.930,-0.2686,0.0786,0.0098
12/17/2014 11:08:05.940,-0.4756,0.1616,-0.1216
12/17/2014 11:08:05.950,-0.7393,0.2271,-0.1724
12/17/2014 11:08:05.960,-0.8213,0.3203,-0.1235
12/17/2014 11:08:05.970,-0.7354,0.4331,0.0024
12/17/2014 11:08:05.980,-0.6636,0.5259,0.0229
12/17/2014 11:08:05.990,-0.6846,0.5342,-0.0537
12/17/2014 11:08:06.000,-0.665,0.3965,-0.0752
12/17/2014 11:08:06.009,-0.5825,0.2485,-0.0688
12/17/2014 11:08:06.019,-0.3916,0.21,-0.0151
12/17/2014 11:08:06.029,-0.1621,0.2988,0.0576
12/17/2014 11:08:06.039,-0.0029,0.7441,0.0972
12/17/2014 11:08:06.049,0.3721,1.3047,0.5557
12/17/2014 11:08:06.059,0.4258,1.4712,0.3218
12/17/2014 11:08:06.069,0.7222,1.2832,-0.0239
12/17/2014 11:08:06.079,2.1372,1.1489,-0.0625
12/17/2014 11:08:06.089,3.7104,0.9971,-0.5615
12/17/2014 11:08:06.099,4.8745,0.7808,-1.5752
12/17/2014 11:08:06.109,3.7236,0.605,-1.7671
12/17/2014 11:08:06.119,3.2578,-0.1479,-0.2871
12/17/2014 11:08:06.130,2.8301,-0.1011,0.1499
12/17/2014 11:08:06.140,2.3364,-0.5435,-0.1216
12/17/2014 11:08:06.150,2.5522,-1.0239,0.0205
12/17/2014 11:08:06.160,2.2515,-0.9966,0.0991
12/17/2014 11:08:06.170,2.0381,-1.1455,0.1689
12/17/2014 11:08:06.180,1.7476,-1.043,0.2114
12/17/2014 11:08:06.190,1.4873,-0.8037,-0.0327
12/17/2014 11:08:06.200,1.3379,-0.4434,-0.3047
12/17/2014 11:08:06.210,1.0923,-0.356,-0.1353
12/17/2014 11:08:06.220,0.8164,-0.0181,-0.1426
12/17/2014 11:08:06.230,0.248,-0.0088,-0.1138
12/17/2014 11:08:06.240,-0.2471,0.0176,0.0254
12/17/2014 11:08:06.250,-0.6187,0.1245,0.3301
12/17/2014 11:08:06.259,-0.686,0.3809,0.5278
12/17/2014 11:08:06.269,-1.2075,0.4668,0.3159
12/17/2014 11:08:06.279,-1.5874,0.3545,0.2505
12/17/2014 11:08:06.289,-1.5239,0.0264,0.1641
12/17/2014 11:08:06.299,-1.0776,-0.188,0.1895
12/17/2014 11:08:06.309,-0.9253,-0.0488,0.0498
12/17/2014 11:08:06.319,-0.7397,-0.0347,-0.1465
12/17/2014 11:08:06.329,-0.3306,0.0288,-0.0913
12/17/2014 11:08:06.339,-0.1045,0.1416,-0.0396
12/17/2014 11:08:06.349,0.2466,0.1743,-0.1152
12/17/2014 11:08:06.359,0.4189,0.0225,-0.1172
12/17/2014 11:08:06.369,0.7852,0.0986,0.3198
12/17/2014 11:08:06.380,1.4644,0.3574,0.8218
12/17/2014 11:08:06.390,1.3613,0.8872,0.1987
12/17/2014 11:08:06.400,1.2202,1.0273,-0.8779
12/17/2014 11:08:06.410,2.665,0.1982,-0.9375
12/17/2014 11:08:06.420,3.4023,-0.9463,0.3472
12/17/2014 11:08:06.430,2.5537,-0.6948,0.4834
12/17/2014 11:08:06.440,2.5586,-1.0557,0.4517
12/17/2014 11:08:06.450,2.624,-0.583,0.0508
12/17/2014 11:08:06.460,2.5542,-0.0352,-0.082
12/17/2014 11:08:06.470,2.3291,0.0176,-0.0181
12/17/2014 11:08:06.480,1.9951,0.0244,0.083
12/17/2014 11:08:06.490,1.8833,0.1787,0.0303
12/17/2014 11:08:06.500,1.9678,0.3604,-0.1299
12/17/2014 11:08:06.509,2.1299,0.4121,-0.3462
12/17/2014 11:08:06.519,2.0444,0.3013,-0.4985
12/17/2014 11:08:06.529,1.9741,0.334,-0.5107
12/17/2014 11:08:06.539,1.8765,0.2656,-0.3706
12/17/2014 11:08:06.549,1.605,0.146,-0.3965
12/17/2014 11:08:06.559,1.2573,0.1318,-0.3867
12/17/2014 11:08:06.569,0.8984,0.1436,-0.2686
12/17/2014 11:08:06.579,0.4194,0.0557,-0.1831
12/17/2014 11:08:06.589,0.1079,-0.124,0.0742
12/17/2014 11:08:06.599,-0.1787,-0.1538,0.1772
12/17/2014 11:08:06.609,-0.3691,-0.0542,0.1455
12/17/2014 11:08:06.619,-0.5776,-0.0039,0.0527
12/17/2014 11:08:06.630,-0.7295,0.001,-0.0146
12/17/2014 11:08:06.640,-0.7544,0.0742,-0.0117
12/17/2014 11:08:06.650,-0.7119,0.1821,-0.0679
12/17/2014 11:08:06.660,-0.5806,0.231,-0.1133
12/17/2014 11:08:06.670,-0.5142,0.2656,-0.1084
12/17/2014 11:08:06.680,-0.48,0.2222,-0.0698
12/17/2014 11:08:06.690,-0.4175,0.1367,0.0103
12/17/2014 11:08:06.700,-0.3462,0.0449,0.0391
12/17/2014 11:08:06.710,-0.2856,0.0498,-0.022
12/17/2014 11:08:06.720,-0.1631,0.3223,-0.041
12/17/2014 11:08:06.730,0.0845,0.8721,0.2329
12/17/2014 11:08:06.740,0.4907,1.3462,0.7495
12/17/2014 11:08:06.750,0.4512,1.6797,0.1172
12/17/2014 11:08:06.759,1.0127,1.2241,-0.0581
12/17/2014 11:08:06.769,2.4478,1.1392,-0.3535
12/17/2014 11:08:06.779,4.8857,1.2441,-0.7422
12/17/2014 11:08:06.789,5.4585,1.4502,-1.6279
12/17/2014 11:08:06.799,3.7637,0.9072,-1.272
12/17/2014 11:08:06.809,2.9243,0.1343,0.0068
12/17/2014 11:08:06.819,2.4688,-0.1938,-0.0186
12/17/2014 11:08:06.829,2.1045,-0.5195,-0.1084
12/17/2014 11:08:06.839,2.2393,-0.6318,0.0566
12/17/2014 11:08:06.849,2.1636,-0.6602,0.1006
12/17/2014 11:08:06.859,2.0322,-0.8696,0.0718
12/17/2014 11:08:06.869,1.9243,-0.9019,0.0205
12/17/2014 11:08:06.880,1.6797,-0.8208,-0.0566
12/17/2014 11:08:06.890,1.3906,-0.4482,-0.041
12/17/2014 11:08:06.900,1.0918,-0.0146,-0.187
12/17/2014 11:08:06.910,0.5366,0.043,-0.2129
12/17/2014 11:08:06.920,0.1934,0.0972,-0.0566
12/17/2014 11:08:06.930,-0.1782,0.0137,0.2314
12/17/2014 11:08:06.940,-0.4287,0.3501,0.3457
12/17/2014 11:08:06.950,-1.1323,0.3457,0.397
12/17/2014 11:08:06.960,-1.4302,0.4082,0.4644
12/17/2014 11:08:06.970,-1.6553,0.5859,0.0845
12/17/2014 11:08:06.980,-1.3296,0.1655,0.0581
12/17/2014 11:08:06.990,-0.8901,-0.0142,0.0376
12/17/2014 11:08:07.000,-0.5596,-0.1274,0.1045
12/17/2014 11:08:07.009,-0.2148,-0.1865,0.0068
12/17/2014 11:08:07.019,-0.1304,-0.2554,0.0928
12/17/2014 11:08:07.029,-0.2158,-0.0298,0.022
12/17/2014 11:08:07.039,-0.1206,-0.0171,0.0166
12/17/2014 11:08:07.049,0.269,-0.1006,-0.0571
12/17/2014 11:08:07.059,0.5938,-0.2251,-0.125
12/17/2014 11:08:07.069,0.7959,-0.165,0.3042
12/17/2014 11:08:07.079,1.1011,-0.0186,0.6963
12/17/2014 11:08:07.089,0.9727,0.5869,0.5
12/17/2014 11:08:07.099,1.1597,0.7041,-0.5684
12/17/2014 11:08:07.109,2.2354,-0.2837,-0.3599
12/17/2014 11:08:07.119,3.46,-0.5728,0.5703
12/17/2014 11:08:07.130,3.0176,-0.8667,0.3828
12/17/2014 11:08:07.140,3.3647,-0.6748,-0.0063
12/17/2014 11:08:07.150,2.7368,-0.2651,-0.3628
12/17/2014 11:08:07.160,2.4214,0.145,-0.1602
12/17/2014 11:08:07.170,2.0005,0.2954,0.0068
12/17/2014 11:08:07.180,1.8647,0.333,0.2144
12/17/2014 11:08:07.190,1.8477,0.4062,0.0493
12/17/2014 11:08:07.200,2.1626,0.5708,-0.1919
12/17/2014 11:08:07.210,2.2578,0.583,-0.4629
12/17/2014 11:08:07.220,2.4341,0.4082,-0.5835
12/17/2014 11:08:07.230,2.1782,0.2158,-0.4253
12/17/2014 11:08:07.240,1.8452,0.0342,-0.3408
12/17/2014 11:08:07.250,1.4722,0.2925,-0.3135
12/17/2014 11:08:07.259,0.8887,0.5215,-0.3135
12/17/2014 11:08:07.269,0.4395,0.3994,-0.0225
12/17/2014 11:08:07.279,0.0112,0.1943,0.1489
12/17/2014 11:08:07.289,-0.3037,0.2485,0.0376
12/17/2014 11:08:07.299,-0.4565,0.2866,-0.1353
12/17/2014 11:08:07.309,-0.5527,0.2349,-0.1885
12/17/2014 11:08:07.319,-0.7397,0.187,-0.2041
12/17/2014 11:08:07.329,-0.8359,0.1689,-0.2109
12/17/2014 11:08:07.339,-0.7866,0.2124,-0.1455
12/17/2014 11:08:07.349,-0.8521,0.293,-0.1055
12/17/2014 11:08:07.359,-0.7842,0.2852,-0.0562
12/17/2014 11:08:07.369,-0.665,0.2021,0.0928
12/17/2014 11:08:07.380,-0.5156,0.124,0.2031
12/17/2014 11:08:07.390,-0.4473,0.0879,0.1577
12/17/2014 11:08:07.400,-0.355,0.1001,0.0264
12/17/2014 11:08:07.410,-0.1348,0.2388,0.0576
12/17/2014 11:08:07.420,0.1636,0.6753,0.3135
12/17/2014 11:08:07.430,0.646,0.9731,0.7002
12/17/2014 11:08:07.440,0.6055,1.1816,0.0166
12/17/2014 11:08:07.450,1.1953,0.9453,-0.1836
12/17/2014 11:08:07.460,2.7954,0.9561,-0.2017
12/17/2014 11:08:07.470,5.2549,1.3784,-1.0049
12/17/2014 11:08:07.480,4.9453,1.0996,-1.6963
12/17/2014 11:08:07.490,3.5068,0.2837,-0.7227
12/17/2014 11:08:07.500,2.5713,-0.2212,-0.0371
12/17/2014 11:08:07.509,2.3584,-0.5161,0.0933
12/17/2014 11:08:07.519,2.5684,-1.0874,0.1001
12/17/2014 11:08:07.529,2.6396,-1.0576,0.1108
12/17/2014 11:08:07.539,2.4673,-1.1509,0.1304
12/17/2014 11:08:07.549,2.0996,-1.1333,0.0337
12/17/2014 11:08:07.559,1.6548,-0.874,-0.1401
12/17/2014 11:08:07.569,1.3979,-0.3945,-0.1123
12/17/2014 11:08:07.579,1.105,0.1162,-0.0264
12/17/2014 11:08:07.589,0.707,0.3579,-0.0952
12/17/2014 11:08:07.599,0.3462,0.3389,-0.0933
12/17/2014 11:08:07.609,-0.0347,0.1499,0.1675
12/17/2014 11:08:07.619,-0.2407,0.3545,0.3584
12/17/2014 11:08:07.630,-0.895,0.457,0.3945
12/17/2014 11:08:07.640,-1.1235,0.4922,0.4048
12/17/2014 11:08:07.650,-1.5669,0.5015,0.1475
12/17/2014 11:08:07.660,-1.5596,0.3418,0.0112
12/17/2014 11:08:07.670,-0.9707,0.0874,0.1904
12/17/2014 11:08:07.680,-0.3721,0.0298,0.1113
12/17/2014 11:08:07.690,-0.3726,-0.1333,-0.1177
12/17/2014 11:08:07.700,-0.3555,-0.1597,-0.1367
12/17/2014 11:08:07.710,-0.3262,0.126,-0.1055
12/17/2014 11:08:07.720,0.1392,0.1367,0.1055
12/17/2014 11:08:07.730,0.4766,-0.1045,-0.0781
12/17/2014 11:08:07.740,0.7842,-0.1958,-0.2051
12/17/2014 11:08:07.750,0.8486,-0.0854,0.4062
12/17/2014 11:08:07.759,1.2363,0.2402,0.6489
12/17/2014 11:08:07.769,0.9634,0.5317,-0.0605
12/17/2014 11:08:07.779,1.1206,0.3535,-0.6123
12/17/2014 11:08:07.789,2.2344,-0.5986,0.0503
12/17/2014 11:08:07.799,2.4521,-0.5132,0.7969
12/17/2014 11:08:07.809,2.4155,-0.6802,0.6797
12/17/2014 11:08:07.819,2.9307,-0.9248,0.4336
12/17/2014 11:08:07.829,2.9033,-0.5181,-0.2612
12/17/2014 11:08:07.839,2.7412,0.0151,-0.2612
12/17/2014 11:08:07.849,2.2769,0.1372,-0.0688
12/17/2014 11:08:07.859,1.9536,0.2681,0.1377
12/17/2014 11:08:07.869,1.8257,0.4243,-0.0244
12/17/2014 11:08:07.880,2.0571,0.4121,-0.123
12/17/2014 11:08:07.890,2.313,0.3618,-0.353
12/17/2014 11:08:07.900,2.1919,0.249,-0.5044
12/17/2014 11:08:07.910,2.166,0.1636,-0.5083
12/17/2014 11:08:07.920,1.8042,-0.1987,-0.4062
12/17/2014 11:08:07.930,1.4131,-0.2593,-0.3438
12/17/2014 11:08:07.940,1.1055,-0.2061,-0.2563
12/17/2014 11:08:07.950,0.6426,-0.021,-0.1523
12/17/2014 11:08:07.960,0.209,0.2622,-0.0957
12/17/2014 11:08:07.970,-0.0605,0.3643,0.0137
12/17/2014 11:08:07.980,-0.2861,0.4468,0.0127
12/17/2014 11:08:07.990,-0.3882,0.2896,-0.0586
12/17/2014 11:08:08.000,-0.6255,0.2539,-0.1616
12/17/2014 11:08:08.009,-0.8931,0.3179,-0.1367
12/17/2014 11:08:08.019,-0.8545,0.5957,-0.1045
12/17/2014 11:08:08.019,-0.7725,0.7354,-0.105
12/17/2014 11:08:08.029,-0.7817,0.7168,-0.1177
12/17/2014 11:08:08.049,-0.79,0.5679,-0.0835
12/17/2014 11:08:08.059,-0.6938,0.3755,-0.0444
12/17/2014 11:08:08.069,-0.4854,0.2139,-0.0176
12/17/2014 11:08:08.079,-0.293,0.2886,-0.0181
12/17/2014 11:08:08.089,-0.1602,0.4595,-0.001
12/17/2014 11:08:08.099,-0.0039,0.8804,0.0649
12/17/2014 11:08:08.109,0.3867,1.3745,0.5405
12/17/2014 11:08:08.109,0.6641,1.3096,0.499
12/17/2014 11:08:08.130,0.8608,1.3159,-0.2432
12/17/2014 11:08:08.140,2.457,0.9082,-0.2847
12/17/2014 11:08:08.150,5.1558,0.7949,-0.6958
12/17/2014 11:08:08.160,4.6987,0.8755,-1.6812
12/17/2014 11:08:08.170,3.686,0.1543,-0.8389
12/17/2014 11:08:08.180,2.7671,-0.208,0.083
12/17/2014 11:08:08.190,2.4121,-0.7686,0.1113
12/17/2014 11:08:08.190,2.498,-1.0063,-0.0244
12/17/2014 11:08:08.210,2.5811,-0.915,-0.0596
12/17/2014 11:08:08.220,2.2793,-1.1934,0.0322
12/17/2014 11:08:08.230,2.1113,-1.291,0.0825
12/17/2014 11:08:08.240,1.6997,-1.04,-0.0537
12/17/2014 11:08:08.250,1.3813,-0.6509,-0.0811
12/17/2014 11:08:08.259,1.1167,-0.0439,0.0142
12/17/2014 11:08:08.269,0.6655,0.0054,-0.0107
12/17/2014 11:08:08.269,0.5337,0.1108,-0.1045
12/17/2014 11:08:08.279,0.1602,0.1128,0.0757
12/17/2014 11:08:08.299,-0.1465,0.1548,0.2461
12/17/2014 11:08:08.309,-0.751,0.2266,0.311
12/17/2014 11:08:08.319,-1.1206,0.3994,0.3838
12/17/2014 11:08:08.329,-1.4272,0.4165,0.2983
12/17/2014 11:08:08.339,-1.5371,0.4771,0.0132
12/17/2014 11:08:08.349,-1.1147,0.144,0.0942
12/17/2014 11:08:08.359,-0.4312,0.0356,0.0938
12/17/2014 11:08:08.359,-0.2217,-0.0435,0.0098
12/17/2014 11:08:08.380,-0.23,-0.0781,-0.0386
12/17/2014 11:08:08.390,-0.437,0.1787,-0.124
12/17/2014 11:08:08.400,-0.2725,0.1992,0.02
12/17/2014 11:08:08.410,0.2046,0.0469,0.1367
12/17/2014 11:08:08.420,0.4585,-0.0986,-0.1289
12/17/2014 11:08:08.430,0.7197,-0.2598,-0.1123
12/17/2014 11:08:08.440,0.6978,-0.2773,0.2988
12/17/2014 11:08:08.440,0.9395,0.356,0.6504
12/17/2014 11:08:08.460,0.7153,0.833,0.3013
12/17/2014 11:08:08.470,1.4492,0.4414,-0.2661
12/17/2014 11:08:08.480,2.4492,0.1636,0.1909
12/17/2014 11:08:08.490,3.0854,-0.2881,0.293
12/17/2014 11:08:08.500,3.7397,-0.6357,0.0898
12/17/2014 11:08:08.509,3.3711,-0.7266,-0.3735
12/17/2014 11:08:08.519,2.6538,-0.2876,-0.1958
12/17/2014 11:08:08.519,2.2485,-0.2856,0.0918
12/17/2014 11:08:08.529,1.8955,-0.2212,0.2739
12/17/2014 11:08:08.549,1.6499,-0.0679,0.1709
12/17/2014 11:08:08.559,1.7432,0.0552,-0.1216
12/17/2014 11:08:08.569,2.1753,0.3027,-0.4038
12/17/2014 11:08:08.579,2.6206,0.3545,-0.6372
12/17/2014 11:08:08.589,2.4106,0.0996,-0.5063
12/17/2014 11:08:08.599,1.832,0.0454,-0.562
12/17/2014 11:08:08.609,1.3799,-0.0654,-0.4229
12/17/2014 11:08:08.609,0.9463,0.2764,-0.3896
12/17/2014 11:08:08.630,0.5093,0.48,-0.2222
12/17/2014 11:08:08.640,0.1157,0.4155,-0.0444
12/17/2014 11:08:08.650,-0.1812,0.3076,0.0186
12/17/2014 11:08:08.660,-0.3862,0.3408,-0.0845
12/17/2014 11:08:08.670,-0.5942,0.2554,-0.1167
12/17/2014 11:08:08.680,-0.7202,0.1289,-0.0732
12/17/2014 11:08:08.690,-0.7925,0.1479,-0.0439
12/17/2014 11:08:08.690,-0.8345,0.2231,-0.021
12/17/2014 11:08:08.710,-0.7627,0.2783,-0.0376
12/17/2014 11:08:08.720,-0.6987,0.293,0.0352
12/17/2014 11:08:08.730,-0.5791,0.2451,0.1299
12/17/2014 11:08:08.740,-0.4565,0.1792,0.2065
12/17/2014 11:08:08.750,-0.3418,0.2036,0.1431
12/17/2014 11:08:08.759,-0.1328,0.2417,-0.022
12/17/2014 11:08:08.769,0.0698,0.3818,-0.0615
12/17/2014 11:08:08.769,0.2603,0.9067,0.0049
12/17/2014 11:08:08.779,0.7271,1.4927,0.5146
12/17/2014 11:08:08.799,0.728,1.564,0.1992
12/17/2014 11:08:08.809,1.2598,1.1138,0.165
12/17/2014 11:08:08.819,2.8965,1.0156,-0.3286
12/17/2014 11:08:08.829,4.9868,1.3882,-1.0649
12/17/2014 11:08:08.839,4.8325,1.1401,-1.7236
12/17/2014 11:08:08.849,3.7012,0.585,-0.8667
12/17/2014 11:08:08.859,2.9067,0.2036,0.0015
12/17/2014 11:08:08.859,2.2695,-0.2227,-0.1387
12/17/2014 11:08:08.880,2.4502,-0.77,-0.0576
12/17/2014 11:08:08.890,2.4663,-0.708,0.0571
12/17/2014 11:08:08.900,2.2773,-0.9487,0.2017
12/17/2014 11:08:08.910,2.1768,-0.9829,0.0581
12/17/2014 11:08:08.920,1.7314,-0.8115,-0.2515
12/17/2014 11:08:08.930,1.4238,-0.498,-0.3267
12/17/2014 11:08:08.940,1.1274,-0.0332,-0.3193
12/17/2014 11:08:08.940,0.6411,0.0029,-0.1426
12/17/2014 11:08:08.960,0.3472,0.0688,-0.145
12/17/2014 11:08:08.970,-0.1982,-0.0718,0.1299
12/17/2014 11:08:08.980,-0.5078,0.29,0.3979
12/17/2014 11:08:08.990,-1.165,0.2163,0.4199
12/17/2014 11:08:09.000,-1.584,0.3984,0.4883
12/17/2014 11:08:09.009,-1.6846,0.2842,0.1797
12/17/2014 11:08:09.019,-1.3413,-0.0649,0.1636
12/17/2014 11:08:09.019,-0.7578,-0.2241,0.1543
12/17/2014 11:08:09.029,-0.7549,-0.0464,-0.1396
12/17/2014 11:08:09.049,-0.8042,-0.1299,-0.1567
12/17/2014 11:08:09.059,-0.3965,0.041,-0.0962
12/17/2014 11:08:09.069,0.1504,0.3081,0.1069
12/17/2014 11:08:09.079,0.3032,0.2656,0.0557
12/17/2014 11:08:09.089,0.4116,0.0381,-0.2539
12/17/2014 11:08:09.099,0.7388,-0.1138,-0.1934
12/17/2014 11:08:09.109,0.8828,-0.1108,0.1875
12/17/2014 11:08:09.109,1.313,0.0288,1.1118
12/17/2014 11:08:09.130,1.1729,0.6699,0.4053
12/17/2014 11:08:09.140,0.855,0.9116,-0.7178
12/17/2014 11:08:09.150,2.2842,-0.0991,-0.5996
12/17/2014 11:08:09.160,2.9106,-0.9307,0.4995
12/17/2014 11:08:09.170,2.3057,-0.6777,0.6475
12/17/2014 11:08:09.180,3.0542,-0.9556,0.6475
12/17/2014 11:08:09.190,2.8066,-0.6255,0.0376
12/17/2014 11:08:09.190,2.6377,-0.1768,-0.2349
12/17/2014 11:08:09.210,2.4033,0.04,-0.1714
12/17/2014 11:08:09.220,2.0415,0.1577,-0.0376
12/17/2014 11:08:09.230,1.7876,0.3105,-0.0435
12/17/2014 11:08:09.240,1.8433,0.4346,-0.1807
12/17/2014 11:08:09.250,2.3447,0.5317,-0.314
12/17/2014 11:08:09.259,2.3086,0.395,-0.5229
12/17/2014 11:08:09.269,2.1392,0.1865,-0.4214
12/17/2014 11:08:09.269,1.5303,0.1807,-0.333
12/17/2014 11:08:09.279,1.3262,0.1475,-0.2153
12/17/2014 11:08:09.299,1.0254,0.147,-0.1274
12/17/2014 11:08:09.309,0.666,0.2554,-0.1201
12/17/2014 11:08:09.319,0.3281,0.2808,0.0776
12/17/2014 11:08:09.329,-0.0078,0.2485,0.1055
12/17/2014 11:08:09.339,-0.1997,0.2515,-0.0405
12/17/2014 11:08:09.349,-0.3975,0.356,-0.2539
12/17/2014 11:08:09.359,-0.6499,0.438,-0.3481
12/17/2014 11:08:09.359,-0.77,0.5991,-0.3774
12/17/2014 11:08:09.380,-0.8838,0.7539,-0.3247
12/17/2014 11:08:09.390,-0.7671,0.6685,-0.187
12/17/2014 11:08:09.400,-0.877,0.4966,-0.0747
12/17/2014 11:08:09.410,-0.9307,0.2559,0.0479
12/17/2014 11:08:09.420,-0.8921,0.0474,0.1685
12/17/2014 11:08:09.430,-0.7705,-0.1519,0.1621
12/17/2014 11:08:09.440,-0.5576,-0.168,0.0728
12/17/2014 11:08:09.440,-0.3628,0.0024,0.0889
12/17/2014 11:08:09.460,-0.0874,0.416,0.2412
12/17/2014 11:08:09.470,0.2915,0.8447,0.8145
12/17/2014 11:08:09.480,0.5293,0.8359,0.521
12/17/2014 11:08:09.490,0.7827,0.5479,0.0752
12/17/2014 11:08:09.500,2.2354,0.2915,-0.1689
12/17/2014 11:08:09.509,4.4224,0.8335,-0.9297
12/17/2014 11:08:09.519,6.3154,0.9272,-1.6909
12/17/2014 11:08:09.519,3.9902,0.3535,-1.3604
12/17/2014 11:08:09.529,2.6938,-0.0713,0.0938
12/17/2014 11:08:09.549,1.9971,-0.3271,0.124
12/17/2014 11:08:09.559,2.1743,-0.8989,0.0312
12/17/2014 11:08:09.569,2.478,-1.0063,0.0249
12/17/2014 11:08:09.579,2.3164,-1.1406,0.1309
12/17/2014 11:08:09.589,2.3755,-1.2183,0.0859
12/17/2014 11:08:09.599,1.7803,-0.9282,-0.1191
12/17/2014 11:08:09.609,1.4214,-0.2983,-0.1396
12/17/2014 11:08:09.609,1.1826,0.1353,-0.1108
12/17/2014 11:08:09.630,0.8394,0.1816,-0.0278
12/17/2014 11:08:09.640,0.5928,0.3848,-0.0044
12/17/2014 11:08:09.650,0.1914,0.4834,0.0361
12/17/2014 11:08:09.660,-0.0903,0.6084,0.2563
12/17/2014 11:08:09.670,-0.7373,0.6035,0.3965
12/17/2014 11:08:09.680,-1.061,0.7603,0.3521
12/17/2014 11:08:09.690,-1.3955,0.9985,0.0996
12/17/2014 11:08:09.690,-1.5034,1.0688,-0.2021
12/17/2014 11:08:09.710,-1.0669,0.5728,-0.1011
12/17/2014 11:08:09.720,-0.3755,0.2837,-0.0303
12/17/2014 11:08:09.730,-0.3262,0.0713,-0.0454
12/17/2014 11:08:09.740,-0.416,-0.0015,-0.022
12/17/2014 11:08:09.750,-0.6738,0.0894,-0.0942
12/17/2014 11:08:09.759,-0.4189,-0.0239,0.002
12/17/2014 11:08:09.769,0.0654,-0.2544,0.0142
12/17/2014 11:08:09.769,0.582,-0.2832,0.3052
12/17/2014 11:08:09.779,0.9097,-0.2964,0.3237
12/17/2014 11:08:09.799,0.8955,0.0435,0.3081
12/17/2014 11:08:09.809,1.4741,0.0493,0.0303
12/17/2014 11:08:09.819,2.3398,-0.3901,0.0791
12/17/2014 11:08:09.829,3.4272,-0.9883,0.5884
12/17/2014 11:08:09.839,3.0034,-1.2129,0.3882
12/17/2014 11:08:09.849,3.1006,-0.7969,-0.0757
12/17/2014 11:08:09.859,2.6362,-0.3931,-0.1528
12/17/2014 11:08:09.859,2.209,-0.0542,-0.0498
12/17/2014 11:08:09.880,1.9478,0.1035,0.1011
12/17/2014 11:08:09.890,1.7358,0.2446,0.0781
12/17/2014 11:08:09.900,1.7651,0.2329,0.0864
12/17/2014 11:08:09.910,2.1226,0.1509,-0.1167
12/17/2014 11:08:09.920,2.4985,0.0718,-0.4053
12/17/2014 11:08:09.930,2.502,-0.0049,-0.6235
12/17/2014 11:08:09.940,2.4829,-0.0669,-0.5669
12/17/2014 11:08:09.940,1.959,-0.3721,-0.2446
12/17/2014 11:08:09.960,1.4551,-0.2192,-0.2363
12/17/2014 11:08:09.970,1.0464,0.1421,-0.2593
12/17/2014 11:08:09.980,0.6577,0.5474,-0.1816
12/17/2014 11:08:09.990,0.0757,0.7046,0.0093
12/17/2014 11:08:10.000,-0.1694,0.4424,0.2632
12/17/2014 11:08:10.009,-0.4199,0.4561,0.0928
12/17/2014 11:08:10.019,-0.6123,0.4839,-0.1245
12/17/2014 11:08:10.019,-0.7129,0.502,-0.2446
12/17/2014 11:08:10.029,-0.7383,0.54,-0.2935
12/17/2014 11:08:10.049,-0.7168,0.5713,-0.3716
12/17/2014 11:08:10.059,-0.6724,0.5962,-0.3794
12/17/2014 11:08:10.069,-0.6343,0.5039,-0.2563
12/17/2014 11:08:10.079,-0.6738,0.4199,-0.0542
12/17/2014 11:08:10.089,-0.5845,0.3774,0.1958
12/17/2014 11:08:10.099,-0.4033,0.3979,0.3491
12/17/2014 11:08:10.109,-0.2944,0.4771,0.2119
12/17/2014 11:08:10.109,-0.1992,0.4941,0.0962
12/17/2014 11:08:10.130,-0.0942,0.7163,0.21
12/17/2014 11:08:10.140,0.3965,0.9009,0.4316
12/17/2014 11:08:10.150,0.4243,0.9307,0.2212
12/17/2014 11:08:10.160,0.8184,0.5566,5e-04
12/17/2014 11:08:10.170,1.7896,0.3706,-0.1646
12/17/2014 11:08:10.180,3.1489,0.7568,-0.4595
12/17/2014 11:08:10.190,5.5366,0.9214,-0.9482
12/17/2014 11:08:10.190,4.3613,0.4209,-1.3315
12/17/2014 11:08:10.210,2.9902,-0.1504,-0.3477
12/17/2014 11:08:10.220,2.3481,-0.4419,-0.0947
12/17/2014 11:08:10.230,2.6333,-0.8843,-0.0132
12/17/2014 11:08:10.240,2.6304,-1.0527,-0.083
12/17/2014 11:08:10.250,2.5005,-1.3696,0.0854
12/17/2014 11:08:10.259,2.2681,-1.3027,0.0742
12/17/2014 11:08:10.269,1.6265,-1.0449,-0.1304
12/17/2014 11:08:10.279,1.312,-0.582,-0.2217
12/17/2014 11:08:10.289,1.1323,-0.1523,-0.0767
12/17/2014 11:08:10.299,0.8052,0.1958,-0.0854
12/17/2014 11:08:10.309,0.3799,0.3701,-0.1348
12/17/2014 11:08:10.319,-0.1201,0.1494,0.0879
12/17/2014 11:08:10.329,-0.4868,0.2236,0.291
12/17/2014 11:08:10.339,-0.7979,0.0752,0.6577
12/17/2014 11:08:10.349,-1.6792,0.5454,0.3262
12/17/2014 11:08:10.359,-1.4985,0.4312,0.2319
12/17/2014 11:08:10.369,-1.189,0.2637,0.2529
12/17/2014 11:08:10.380,-0.7397,0.2856,0.1694
12/17/2014 11:08:10.390,-0.5864,0.1758,0.1401
12/17/2014 11:08:10.400,-0.3965,0.0879,-0.0771
12/17/2014 11:08:10.410,-0.3647,0.2505,-0.2661
12/17/2014 11:08:10.420,-0.1992,0.3433,-0.1201
12/17/2014 11:08:10.430,0.1318,0.2739,0.041
12/17/2014 11:08:10.440,0.4688,0.1055,0.0342
12/17/2014 11:08:10.450,0.7939,0.0146,0.3984
12/17/2014 11:08:10.460,1.2524,0.2378,0.3364
12/17/2014 11:08:10.470,0.8535,0.5352,-0.0923
12/17/2014 11:08:10.480,1.1821,0.5889,-0.4917
12/17/2014 11:08:10.490,2.2021,-0.0815,-0.0332
12/17/2014 11:08:10.500,2.5977,-0.4443,0.5488
12/17/2014 11:08:10.509,2.6431,-0.4873,0.4346
12/17/2014 11:08:10.519,2.7266,-0.8628,0.2529
12/17/2014 11:08:10.529,2.6987,-0.6377,-0.0923
12/17/2014 11:08:10.539,2.3994,-0.1934,0.0308
12/17/2014 11:08:10.549,2.0771,-0.064,0.0293
12/17/2014 11:08:10.559,1.8252,-0.0898,0.1421
12/17/2014 11:08:10.569,1.6299,0.0288,0.0825
12/17/2014 11:08:10.579,1.7681,0.0195,-0.1675
12/17/2014 11:08:10.589,2.2236,-0.0151,-0.375
12/17/2014 11:08:10.599,2.3892,-0.0376,-0.5767
12/17/2014 11:08:10.609,2.3906,-0.0947,-0.4883
12/17/2014 11:08:10.619,1.8916,-0.3369,-0.3022
12/17/2014 11:08:10.630,1.4922,-0.1602,-0.3296
12/17/2014 11:08:10.640,1.0962,-0.2388,-0.2217
12/17/2014 11:08:10.650,0.5923,0.1318,-0.1211
12/17/2014 11:08:10.660,0.1953,0.2822,0.0361
12/17/2014 11:08:10.670,-0.1553,0.3081,0.1079
12/17/2014 11:08:10.680,-0.2744,0.3237,0.085
12/17/2014 11:08:10.690,-0.522,0.3613,0.0381
12/17/2014 11:08:10.700,-0.7676,0.2754,-0.0464
12/17/2014 11:08:10.710,-0.8647,0.2358,-0.0928
12/17/2014 11:08:10.720,-0.8848,0.2266,-0.0376
12/17/2014 11:08:10.730,-0.7974,0.394,-0.124
12/17/2014 11:08:10.740,-0.7095,0.4155,-0.0942
12/17/2014 11:08:10.750,-0.6211,0.4277,-0.0205
12/17/2014 11:08:10.759,-0.5645,0.3999,0.0142
12/17/2014 11:08:10.769,-0.4355,0.4141,-0.0034
12/17/2014 11:08:10.779,-0.2754,0.6655,-0.1294
12/17/2014 11:08:10.789,0.0464,1.0371,0.2451
12/17/2014 11:08:10.799,0.3652,1.3145,0.418
12/17/2014 11:08:10.809,0.4253,1.3184,0.0801
12/17/2014 11:08:10.819,0.9443,1.0864,-0.1924
12/17/2014 11:08:10.829,2.2974,1.1504,-0.2549
12/17/2014 11:08:10.839,4.5171,1.2427,-0.6514
12/17/2014 11:08:10.849,6.3159,1.2783,-1.7349
12/17/2014 11:08:10.859,3.896,0.8516,-1.4585
12/17/2014 11:08:10.869,2.6099,0.0151,-0.1484
12/17/2014 11:08:10.880,2.3159,-0.4004,0.1162
12/17/2014 11:08:10.890,2.2017,-0.8223,0.1089
12/17/2014 11:08:10.900,2.5469,-0.6562,0.0039
12/17/2014 11:08:10.910,2.2842,-0.7671,0.0796
12/17/2014 11:08:10.920,2.0083,-1.0278,-0.0757
12/17/2014 11:08:10.930,1.7642,-0.8145,-0.2207
12/17/2014 11:08:10.940,1.4175,-0.6064,-0.2031
12/17/2014 11:08:10.950,1.2603,-0.2104,-0.082
12/17/2014 11:08:10.960,0.959,0.1216,-0.2939
12/17/2014 11:08:10.970,0.4771,0.2041,-0.1631
12/17/2014 11:08:10.980,0.019,0.1357,0.063
12/17/2014 11:08:10.990,-0.1411,0.2197,0.4746
12/17/2014 11:08:11.000,-0.9214,0.416,0.5522
12/17/2014 11:08:11.009,-1.5737,0.2354,0.5396
12/17/2014 11:08:11.019,-1.7373,0.4556,0.1841
12/17/2014 11:08:11.029,-1.5303,0.3242,0.0059
12/17/2014 11:08:11.039,-0.8154,-0.0054,0.2197
12/17/2014 11:08:11.049,-0.1636,-0.0742,0.0264
12/17/2014 11:08:11.059,-0.3003,-0.1089,-0.1641
12/17/2014 11:08:11.069,-0.1982,-0.1875,-0.0718
12/17/2014 11:08:11.079,-0.3188,0.0469,-0.0771
12/17/2014 11:08:11.089,-0.1284,0.0361,0.002
12/17/2014 11:08:11.099,0.0708,-0.1694,-0.1494
12/17/2014 11:08:11.109,0.4033,-0.1909,-0.0332
12/17/2014 11:08:11.119,0.8975,-0.1548,0.6284
12/17/2014 11:08:11.130,1.2334,0.4385,0.7168
12/17/2014 11:08:11.140,0.9185,0.7075,0.3135
12/17/2014 11:08:11.150,1.354,0.4653,-0.354
12/17/2014 11:08:11.160,2.4429,-0.0703,-0.0991
12/17/2014 11:08:11.170,3.6157,-0.9292,0.7227
12/17/2014 11:08:11.180,3.3677,-1.3525,0.4033
12/17/2014 11:08:11.190,3.0698,-0.9009,-0.2109
12/17/2014 11:08:11.200,2.3359,-0.1978,-0.165
12/17/2014 11:08:11.210,2.0547,0.1357,0.0293
12/17/2014 11:08:11.220,1.7222,0.2749,0.1162
12/17/2014 11:08:11.230,1.5122,0.4502,0.0479
12/17/2014 11:08:11.240,1.5581,0.666,-0.1934
12/17/2014 11:08:11.250,2.21,0.7715,-0.3096
12/17/2014 11:08:11.259,2.4863,0.6499,-0.4517
12/17/2014 11:08:11.269,2.2197,0.1836,-0.4219
12/17/2014 11:08:11.279,1.8467,0.0122,-0.2085
12/17/2014 11:08:11.289,1.3447,0.1694,-0.2402
12/17/2014 11:08:11.299,0.9839,0.2554,-0.189
12/17/2014 11:08:11.309,0.7827,0.4424,-0.1699
12/17/2014 11:08:11.319,0.438,0.5103,-0.0381
12/17/2014 11:08:11.329,0.0591,0.4209,0.0225
12/17/2014 11:08:11.339,-0.2568,0.3911,-0.0723
12/17/2014 11:08:11.349,-0.3701,0.3799,-0.2656
12/17/2014 11:08:11.359,-0.5391,0.3911,-0.3345
12/17/2014 11:08:11.369,-0.6909,0.4419,-0.2739
12/17/2014 11:08:11.380,-0.7305,0.5347,-0.186
12/17/2014 11:08:11.390,-0.7407,0.5127,-0.1553
12/17/2014 11:08:11.400,-0.8589,0.4155,-0.1724
12/17/2014 11:08:11.410,-0.9253,0.3169,-0.1372
12/17/2014 11:08:11.420,-0.7754,0.1943,0.0386
12/17/2014 11:08:11.430,-0.5229,0.0527,0.1411
12/17/2014 11:08:11.440,-0.3999,-0.0059,0.0762
12/17/2014 11:08:11.450,-0.3086,0.0371,0.1304
12/17/2014 11:08:11.460,-0.0913,0.2529,0.5391
12/17/2014 11:08:11.470,0.4233,0.6055,1.0249
12/17/2014 11:08:11.480,0.396,0.6406,0.4434
12/17/2014 11:08:11.490,0.7197,0.2388,-0.0298
12/17/2014 11:08:11.500,2.1328,0.3447,-0.2036
12/17/2014 11:08:11.509,3.7251,0.9014,-0.6812
12/17/2014 11:08:11.519,6.6187,1.208,-1.4453
12/17/2014 11:08:11.529,4.2007,0.7559,-1.3706
12/17/2014 11:08:11.539,2.749,0.1763,0.1118
12/17/2014 11:08:11.549,2.0903,-0.0859,0.2729
12/17/2014 11:08:11.559,1.9834,-0.4648,0.1675
12/17/2014 11:08:11.569,2.0977,-0.6401,0.1299
12/17/2014 11:08:11.579,2.2017,-1.0054,0.2539
12/17/2014 11:08:11.589,2.7139,-1.2847,0.3101
12/17/2014 11:08:11.599,2.0845,-1.1543,0.0923
12/17/2014 11:08:11.609,1.4834,-0.8423,-0.1724
12/17/2014 11:08:11.619,1.3013,-0.1484,-0.1309
12/17/2014 11:08:11.630,0.9146,0.1768,-0.0957
12/17/2014 11:08:11.640,0.5093,0.3818,0.0508
12/17/2014 11:08:11.650,0.0835,0.4556,0.1558
12/17/2014 11:08:11.660,-0.4092,0.6099,0.2852
12/17/2014 11:08:11.670,-0.9849,0.6743,0.2339
12/17/2014 11:08:11.680,-1.3301,0.6973,0.228
12/17/2014 11:08:11.690,-1.4648,0.7808,0.0312
12/17/2014 11:08:11.700,-1.3511,0.7075,-0.1587
12/17/2014 11:08:11.710,-0.8833,0.5215,-0.0342
12/17/2014 11:08:11.720,-0.3257,0.3433,-0.0361
12/17/2014 11:08:11.730,-0.3643,0.0649,-0.1392
12/17/2014 11:08:11.740,-0.5747,0.0327,-0.2002
12/17/2014 11:08:11.750,-0.5,0.1426,-0.1714
12/17/2014 11:08:11.759,-0.126,0.0342,-0.1543
12/17/2014 11:08:11.769,0.3237,-0.1504,-0.1025
12/17/2014 11:08:11.779,0.7461,-0.271,0.1436
12/17/2014 11:08:11.789,0.8975,-0.3003,0.3579
12/17/2014 11:08:11.799,0.9907,0.0195,0.4624
12/17/2014 11:08:11.809,1.1182,0.1553,0.3579
12/17/2014 11:08:11.819,1.7896,-0.0781,0.3042
12/17/2014 11:08:11.829,2.7246,-0.5454,0.4126
12/17/2014 11:08:11.839,3.1392,-0.9209,0.4824
12/17/2014 11:08:11.849,3.4023,-0.8276,0.1069
12/17/2014 11:08:11.859,3.0244,-0.5356,-0.2979
12/17/2014 11:08:11.869,2.6147,-0.0576,-0.1738
12/17/2014 11:08:11.880,2.1025,0.144,-0.0288
12/17/2014 11:08:11.890,1.686,0.1792,0.103
12/17/2014 11:08:11.900,1.7021,0.2012,-0.0239
12/17/2014 11:08:11.910,2.2031,0.2974,-0.2358
12/17/2014 11:08:11.920,2.5864,0.3188,-0.4399
12/17/2014 11:08:11.930,2.5547,0.1494,-0.5054
12/17/2014 11:08:11.940,1.7305,0.1978,-0.4048
12/17/2014 11:08:11.950,1.2681,0.3379,-0.3286
12/17/2014 11:08:11.960,1.2046,0.2803,-0.2349
12/17/2014 11:08:11.970,0.8223,0.3311,-0.1123
12/17/2014 11:08:11.980,0.5234,0.3979,0.1528
12/17/2014 11:08:11.990,0.0288,0.2393,0.2271
12/17/2014 11:08:12.000,-0.249,0.2739,-0.0293
12/17/2014 11:08:12.009,-0.4473,0.2075,-0.207
12/17/2014 11:08:12.019,-0.5513,0.1895,-0.2036
12/17/2014 11:08:12.029,-0.6323,0.2627,-0.1953
12/17/2014 11:08:12.039,-0.5972,0.2998,-0.2344
12/17/2014 11:08:12.049,-0.6245,0.3525,-0.272
12/17/2014 11:08:12.059,-0.5503,0.4165,-0.248
12/17/2014 11:08:12.069,-0.5439,0.4302,-0.1899
12/17/2014 11:08:12.079,-0.5122,0.3398,-0.0464
12/17/2014 11:08:12.089,-0.4067,0.2759,0.1592
12/17/2014 11:08:12.099,-0.3579,0.3457,0.168
12/17/2014 11:08:12.109,-0.3486,0.3652,0.02
12/17/2014 11:08:12.119,-0.2144,0.3901,-0.0264
12/17/2014 11:08:12.130,-0.0034,0.7573,0.1831
12/17/2014 11:08:12.140,0.4302,1.2251,0.7056
12/17/2014 11:08:12.150,0.584,1.1509,0.2412
12/17/2014 11:08:12.160,0.6738,0.6807,-0.1729
12/17/2014 11:08:12.170,2.2964,0.7861,-0.2852
12/17/2014 11:08:12.180,4.2998,1.2393,-0.7051
12/17/2014 11:08:12.190,6.0249,1.207,-1.6182
12/17/2014 11:08:12.200,4.0361,0.3877,-0.9521
12/17/2014 11:08:12.210,2.8354,-0.188,0.0649
12/17/2014 11:08:12.220,2.3828,-0.5537,0.1587
12/17/2014 11:08:12.230,2.3525,-0.7114,-0.0366
12/17/2014 11:08:12.240,2.5791,-1.0229,0.0059
12/17/2014 11:08:12.250,2.5303,-1.4702,0.2246
12/17/2014 11:08:12.259,2.2749,-1.3423,0.1265
12/17/2014 11:08:12.269,1.6187,-0.8921,-0.1318
12/17/2014 11:08:12.279,1.2803,-0.3101,-0.1235
12/17/2014 11:08:12.289,0.8872,0.1733,-0.1094
12/17/2014 11:08:12.299,0.5288,0.5205,-0.3008
12/17/2014 11:08:12.309,0.123,0.4458,-0.0371
12/17/2014 11:08:12.319,-0.1211,0.7124,0.1401
12/17/2014 11:08:12.329,-0.6895,0.6611,0.144
12/17/2014 11:08:12.339,-1.2983,0.4526,0.4961
12/17/2014 11:08:12.349,-1.4082,0.6816,0.3867
12/17/2014 11:08:12.359,-1.5825,0.6372,0.1582
12/17/2014 11:08:12.369,-1.1587,0.377,0.1431
12/17/2014 11:08:12.380,-0.8086,0.4082,-0.0244
12/17/2014 11:08:12.390,-0.6289,0.1719,-0.0718
12/17/2014 11:08:12.400,-0.4565,-0.0854,0.0513
12/17/2014 11:08:12.410,-0.0537,-0.1494,0.0044
12/17/2014 11:08:12.420,-0.0942,-0.1157,0.1343
12/17/2014 11:08:12.430,-0.0815,-0.0396,0.1211
12/17/2014 11:08:12.440,0.0034,-0.0054,0.1704
12/17/2014 11:08:12.450,0.3491,-0.2397,0.0474
12/17/2014 11:08:12.460,0.8379,-0.604,0.3027
12/17/2014 11:08:12.470,1.5693,0.2173,0.8535
12/17/2014 11:08:12.480,1.3599,0.8921,0.6616
12/17/2014 11:08:12.490,1.5405,0.3696,-0.2676
12/17/2014 11:08:12.500,3.7363,-0.374,-0.2754
12/17/2014 11:08:12.509,3.3916,-1.0034,0.2812
12/17/2014 11:08:12.519,3.2842,-1.1689,-0.0078
12/17/2014 11:08:12.529,2.981,-0.6826,-0.2988
12/17/2014 11:08:12.539,2.5596,-0.1104,-0.1772
12/17/2014 11:08:12.549,2.2188,0.0601,-0.0557
12/17/2014 11:08:12.559,1.7817,0.2104,-0.123
12/17/2014 11:08:12.569,1.7251,0.3389,-0.0889
12/17/2014 11:08:12.579,2.2612,0.3447,-0.2378
12/17/2014 11:08:12.589,2.561,0.2388,-0.5503
12/17/2014 11:08:12.599,2.4126,0.1948,-0.5742
12/17/2014 11:08:12.609,1.9194,0.3022,-0.4717
12/17/2014 11:08:12.619,1.4053,0.4092,-0.4731
12/17/2014 11:08:12.630,1.187,0.4316,-0.4224
12/17/2014 11:08:12.640,0.7778,0.417,-0.2593
12/17/2014 11:08:12.650,0.4893,0.3867,-0.0234
12/17/2014 11:08:12.660,0.1401,0.2134,0.0698
12/17/2014 11:08:12.670,-0.2681,0.1602,-0.0249
12/17/2014 11:08:12.680,-0.6445,0.1343,-0.1514
12/17/2014 11:08:12.690,-0.8301,0.2051,-0.1519
12/17/2014 11:08:12.700,-0.896,0.2456,-0.1108
12/17/2014 11:08:12.710,-0.752,0.2729,-0.1182
12/17/2014 11:08:12.720,-0.5747,0.2637,-0.1392
12/17/2014 11:08:12.730,-0.5361,0.2793,-0.084
12/17/2014 11:08:12.740,-0.6226,0.2783,-0.0552
12/17/2014 11:08:12.750,-0.5591,0.1602,0.0903
12/17/2014 11:08:12.759,-0.4863,0.1177,0.2485
12/17/2014 11:08:12.769,-0.4038,0.1348,0.2363
12/17/2014 11:08:12.779,-0.2563,0.1201,0.1533
12/17/2014 11:08:12.789,-0.0537,0.1309,0.0713
12/17/2014 11:08:12.799,0.146,0.2046,-0.0254
12/17/2014 11:08:12.809,0.3242,0.7236,-0.1113
12/17/2014 11:08:12.819,0.8413,1.4121,0.4165
12/17/2014 11:08:12.829,1.1875,1.5415,0.5176
12/17/2014 11:08:12.839,1.4331,1.4019,-0.3193
12/17/2014 11:08:12.849,3.3501,1.269,-0.5913
12/17/2014 11:08:12.859,6.2163,1.5171,-1.2305
12/17/2014 11:08:12.869,4.8105,1.4678,-1.3345
12/17/2014 11:08:12.880,3.2012,0.3091,-0.4448
12/17/2014 11:08:12.890,2.8154,-0.0894,-0.0503
12/17/2014 11:08:12.900,2.7397,-0.6855,-0.2827
12/17/2014 11:08:12.910,2.5747,-0.7988,-0.3286
12/17/2014 11:08:12.920,2.4341,-0.9702,-0.0483
12/17/2014 11:08:12.930,2.376,-1.2188,0.1484
12/17/2014 11:08:12.940,1.8735,-1.0879,-0.0864
12/17/2014 11:08:12.950,1.4072,-0.8311,-0.1772
12/17/2014 11:08:12.960,0.9668,-0.3042,-0.0039
12/17/2014 11:08:12.970,0.5503,0.4775,-0.1665
12/17/2014 11:08:12.980,0.0317,0.4243,-0.1094
12/17/2014 11:08:12.990,-0.4609,0.2642,0.127
12/17/2014 11:08:13.000,-0.9033,-0.1489,0.4277
12/17/2014 11:08:13.009,-1.2832,0.2021,0.4741
12/17/2014 11:08:13.019,-1.7432,0.2612,0.417
12/17/2014 11:08:13.029,-1.7617,0.5688,0.1284
12/17/2014 11:08:13.039,-1.335,0.4268,-0.0781
12/17/2014 11:08:13.049,-0.8408,0.2446,-0.0708
12/17/2014 11:08:13.059,-0.5591,0.0225,0.0693
12/17/2014 11:08:13.069,-0.1587,-0.0532,-0.1079
12/17/2014 11:08:13.079,-0.124,-0.1494,-0.0732
12/17/2014 11:08:13.089,-0.2021,0.0225,0.0547
12/17/2014 11:08:13.099,0.1064,0.3018,0.1475
12/17/2014 11:08:13.109,0.4814,0.0557,0.0688
12/17/2014 11:08:13.119,0.6538,-0.0991,-0.2178
12/17/2014 11:08:13.130,0.9868,-0.6719,-0.2637
12/17/2014 11:08:13.140,1.0435,-0.7686,0.3735
12/17/2014 11:08:13.150,1.3901,0.6533,1.4253
12/17/2014 11:08:13.160,1.1479,0.707,0.6523
12/17/2014 11:08:13.170,1.8955,0.4795,-0.1782
12/17/2014 11:08:13.180,2.6445,-0.1094,-0.0942
12/17/2014 11:08:13.190,2.96,-0.1577,0.1313
12/17/2014 11:08:13.200,3.9556,0.2324,0.1758
12/17/2014 11:08:13.210,3.126,-0.0356,-0.4048
12/17/2014 11:08:13.220,2.4429,0.1211,-0.1416
12/17/2014 11:08:13.230,2.1499,0.0171,0.0259
12/17/2014 11:08:13.240,2.1279,-0.3242,0.1479
12/17/2014 11:08:13.250,2.2515,-0.3838,0.1558
12/17/2014 11:08:13.259,2.2866,-0.4062,-0.3247
12/17/2014 11:08:13.269,2.4355,-0.2363,-0.4541
12/17/2014 11:08:13.279,2.6274,0.2422,-0.415
12/17/2014 11:08:13.289,1.5874,0.5557,-0.5112
12/17/2014 11:08:13.299,1.2881,0.6108,-0.4858
12/17/2014 11:08:13.309,1.0396,0.6421,-0.375
12/17/2014 11:08:13.319,0.5566,0.3931,-0.0776
12/17/2014 11:08:13.329,0.0322,0.1738,0.1016
12/17/2014 11:08:13.339,-0.2769,0.1064,0.1245
12/17/2014 11:08:13.349,-0.6313,0.1396,-0.0542
12/17/2014 11:08:13.359,-0.8091,0.1484,-0.1123
12/17/2014 11:08:13.369,-0.854,0.1768,-0.123
12/17/2014 11:08:13.380,-0.9282,0.0972,-0.126
12/17/2014 11:08:13.390,-0.8047,0.1484,-0.1807
12/17/2014 11:08:13.400,-0.7676,0.1924,-0.1538
12/17/2014 11:08:13.410,-0.7798,0.2344,-0.0986
12/17/2014 11:08:13.420,-0.7285,0.1841,-0.0347
12/17/2014 11:08:13.430,-0.5884,0.1099,0.1792
12/17/2014 11:08:13.440,-0.4517,0.1748,0.1641
12/17/2014 11:08:13.450,-0.3789,0.2168,0.0273
12/17/2014 11:08:13.460,-0.1816,0.1802,-0.0352
12/17/2014 11:08:13.470,0.1104,0.5088,-0.1519
12/17/2014 11:08:13.480,0.5049,1.2271,0.1797
12/17/2014 11:08:13.490,1.0239,1.8081,0.5576
12/17/2014 11:08:13.500,1.0601,1.7944,-0.1006
12/17/2014 11:08:13.509,2.7622,1.3154,-0.1772
12/17/2014 11:08:13.519,5.5918,1.1436,-0.9302
12/17/2014 11:08:13.529,6.3281,1.2236,-1.7554
12/17/2014 11:08:13.539,3.5444,0.208,-0.9741
12/17/2014 11:08:13.549,2.8306,-0.2241,0.2495
12/17/2014 11:08:13.559,2.4702,-0.4546,0.1982
12/17/2014 11:08:13.569,2.397,-0.7842,-0.1333
12/17/2014 11:08:13.579,2.4712,-0.9819,-0.0762
12/17/2014 11:08:13.589,2.4243,-1.2861,0.1172
12/17/2014 11:08:13.599,2.1265,-1.1787,0.0698
12/17/2014 11:08:13.609,1.5957,-0.8638,-0.1201
12/17/2014 11:08:13.619,1.2744,-0.2549,-0.0024
12/17/2014 11:08:13.630,0.6763,0.3081,0.0796
12/17/2014 11:08:13.640,0.2256,0.6548,-0.0444
12/17/2014 11:08:13.650,-0.481,0.6406,0.0869
12/17/2014 11:08:13.660,-0.8857,0.1934,0.3896
12/17/2014 11:08:13.670,-1.0264,0.3833,0.6338
12/17/2014 11:08:13.680,-1.689,0.6787,0.3501
12/17/2014 11:08:13.690,-1.6143,0.8442,0.0371
12/17/2014 11:08:13.700,-1.2568,0.7085,-0.2656
12/17/2014 11:08:13.710,-0.9023,0.3003,-0.4004
12/17/2014 11:08:13.720,-0.5757,-0.0811,-0.2422
12/17/2014 11:08:13.730,0.3242,-0.5493,0.1079
12/17/2014 11:08:13.740,0.3452,-0.4722,0.04
12/17/2014 11:08:13.750,-0.125,-0.395,0.0581
12/17/2014 11:08:13.759,-0.3467,-0.103,-0.0098
12/17/2014 11:08:13.769,-0.2173,-0.0742,0.1807
12/17/2014 11:08:13.779,0.1079,-0.1719,0.0229
12/17/2014 11:08:13.789,0.5718,-0.4849,-0.2861
12/17/2014 11:08:13.799,1.0913,-0.4634,0.2202
12/17/2014 11:08:13.809,1.4497,0.3677,0.8125
12/17/2014 11:08:13.819,1.2607,1.0562,0.7041
12/17/2014 11:08:13.829,1.4756,0.584,-0.1152
12/17/2014 11:08:13.839,2.6353,0,-0.2993
12/17/2014 11:08:13.849,3.6079,-0.4517,0.4048
12/17/2014 11:08:13.859,3.3384,-0.769,0.3008
12/17/2014 11:08:13.869,3.1299,-0.6499,-0.1841
12/17/2014 11:08:13.880,2.6406,-0.1763,-0.1475
12/17/2014 11:08:13.890,2.3467,0.0361,0.0933
12/17/2014 11:08:13.900,1.8516,0.0171,0.085
12/17/2014 11:08:13.910,1.8223,0.0918,-0.0635
12/17/2014 11:08:13.920,2.2363,-0.0825,-0.2236
12/17/2014 11:08:13.930,2.6851,-0.1396,-0.4092
12/17/2014 11:08:13.940,2.5156,0.209,-0.4629
12/17/2014 11:08:13.950,1.8486,0.5679,-0.522
12/17/2014 11:08:13.960,1.3442,0.665,-0.5562
12/17/2014 11:08:13.970,1.0488,0.8506,-0.29
12/17/2014 11:08:13.980,0.9155,0.6851,0.0337
12/17/2014 11:08:13.990,0.501,0.6108,0.0728
12/17/2014 11:08:14.000,-0.1001,0.6924,-0.0107
12/17/2014 11:08:14.009,-0.6606,0.7456,-0.3291
12/17/2014 11:08:14.019,-0.9214,0.6885,-0.3965
12/17/2014 11:08:14.029,-0.9307,0.5747,-0.4141
12/17/2014 11:08:14.039,-0.8208,0.3628,-0.4424
12/17/2014 11:08:14.049,-0.7891,0.2803,-0.377
12/17/2014 11:08:14.059,-0.8833,0.251,-0.2471
12/17/2014 11:08:14.069,-0.7935,0.2769,-0.1353
12/17/2014 11:08:14.079,-0.7168,0.1582,0.0679
12/17/2014 11:08:14.089,-0.542,0.0537,0.3291
12/17/2014 11:08:14.099,-0.4224,0.0923,0.3613
12/17/2014 11:08:14.109,-0.3594,0.1611,0.1851
12/17/2014 11:08:14.119,-0.2573,0.1436,-0.0737
12/17/2014 11:08:14.130,-0.0352,0.3359,-0.1997
12/17/2014 11:08:14.140,0.5239,0.8896,0.1738
12/17/2014 11:08:14.150,1.1113,1.2402,0.3955
12/17/2014 11:08:14.160,1.3706,1.2876,-0.021
12/17/2014 11:08:14.170,2.8691,1.1143,-0.0371
12/17/2014 11:08:14.180,5.3052,1.0776,-0.8862
12/17/2014 11:08:14.190,5.4277,1.1152,-1.5156
12/17/2014 11:08:14.200,3.3164,0.2612,-0.6484
12/17/2014 11:08:14.210,2.5869,-0.3774,0.1553
12/17/2014 11:08:14.220,2.6152,-0.6836,0.2202
12/17/2014 11:08:14.230,2.3208,-0.8003,-0.0337
12/17/2014 11:08:14.240,2.4502,-1.1831,0.0791
12/17/2014 11:08:14.250,2.6943,-1.606,0.3364
12/17/2014 11:08:14.259,2.0479,-1.2539,0.2373
12/17/2014 11:08:14.269,1.4287,-0.6724,-0.019
12/17/2014 11:08:14.279,0.8657,0.0259,-0.2324
12/17/2014 11:08:14.289,0.356,0.6953,-0.3135
12/17/2014 11:08:14.299,-0.0156,0.771,0.1382
12/17/2014 11:08:14.309,-0.3276,0.8804,0.2461
12/17/2014 11:08:14.319,-0.8721,0.6548,0.3833
12/17/2014 11:08:14.329,-1.2915,0.8169,0.3564
12/17/2014 11:08:14.339,-1.6489,0.8247,0.2793
12/17/2014 11:08:14.349,-1.6001,0.6196,-0.041
12/17/2014 11:08:14.359,-1.2134,0.4224,-0.1875
12/17/2014 11:08:14.369,-0.9297,0.3579,-0.353
12/17/2014 11:08:14.380,-0.8013,0.1172,-0.2607
12/17/2014 11:08:14.390,-0.2354,-0.1416,0.0757
12/17/2014 11:08:14.400,0.2793,-0.2979,0.1895
12/17/2014 11:08:14.410,0.0249,-0.2651,0.165
12/17/2014 11:08:14.420,-0.1255,-0.0347,0.0771
12/17/2014 11:08:14.430,0.0522,0.0742,0.0459
12/17/2014 11:08:14.440,0.3423,-0.0513,-0.2065
12/17/2014 11:08:14.450,0.8921,-0.5391,-0.354
12/17/2014 11:08:14.460,1.2422,-0.5508,0.2153
12/17/2014 11:08:14.470,1.6343,0.562,1.0361
12/17/2014 11:08:14.480,1.3853,0.6309,0.8652
12/17/2014 11:08:14.490,2.0317,0.3389,0.0889
12/17/2014 11:08:14.500,2.4609,-0.3447,0.124
12/17/2014 11:08:14.509,3.145,-0.5264,0.3164
12/17/2014 11:08:14.519,3.4028,-0.4956,0.2197
12/17/2014 11:08:14.529,3.02,-0.3413,-0.2954
12/17/2014 11:08:14.539,2.6802,-0.0127,-0.0981
12/17/2014 11:08:14.549,2.2168,0.0127,-0.0654
12/17/2014 11:08:14.559,2.0552,-0.0083,-0.0273
12/17/2014 11:08:14.569,2.4287,-0.2339,-0.0664
12/17/2014 11:08:14.579,2.623,-0.2646,-0.3989
12/17/2014 11:08:14.589,3.0156,-0.1421,-0.562
12/17/2014 11:08:14.599,2.3091,0.1792,-0.5337
12/17/2014 11:08:14.609,1.646,0.6714,-0.5845
12/17/2014 11:08:14.619,1.3174,0.855,-0.5288
12/17/2014 11:08:14.630,1.0483,0.8047,-0.2256
12/17/2014 11:08:14.640,0.6987,0.5005,0.0864
12/17/2014 11:08:14.650,0.104,0.1899,0.167
12/17/2014 11:08:14.660,-0.5571,0.1338,0.0444
12/17/2014 11:08:14.670,-0.9248,0.1157,-0.0562
12/17/2014 11:08:14.680,-0.9863,0.1748,-0.0146
12/17/2014 11:08:14.690,-1.1416,0.1538,-0.1021
12/17/2014 11:08:14.700,-0.8638,0.2476,-0.3086
12/17/2014 11:08:14.710,-0.6641,0.3657,-0.3408
12/17/2014 11:08:14.720,-0.6562,0.4644,-0.3062
12/17/2014 11:08:14.730,-0.6709,0.4448,-0.2271
12/17/2014 11:08:14.740,-0.585,0.3315,0.0459
12/17/2014 11:08:14.750,-0.4663,0.2759,0.2485
12/17/2014 11:08:14.759,-0.4106,0.4028,0.1157
12/17/2014 11:08:14.769,-0.3091,0.4072,0.0444
12/17/2014 11:08:14.779,-0.1294,0.332,-0.0444
12/17/2014 11:08:14.789,0.0742,0.3901,-0.3862
12/17/2014 11:08:14.799,0.2891,0.7935,-0.5044
12/17/2014 11:08:14.809,1.1338,1.4258,0.3872
12/17/2014 11:08:14.819,1.5542,1.6104,0.6196
12/17/2014 11:08:14.829,2.2251,1.6372,-0.2183
12/17/2014 11:08:14.839,3.626,0.6274,-0.3394
12/17/2014 11:08:14.849,6.1104,0.6929,-0.978
12/17/2014 11:08:14.859,4.6689,-0.1221,-0.7368
12/17/2014 11:08:14.869,3.167,-0.6694,-0.2744
12/17/2014 11:08:14.880,2.8687,-0.6382,-0.1631
12/17/2014 11:08:14.890,2.6025,-0.7617,-0.311
12/17/2014 11:08:14.900,2.5425,-1.4116,-0.0679
12/17/2014 11:08:14.910,2.3208,-1.6479,0.1113
12/17/2014 11:08:14.920,1.8101,-1.373,0.1401
12/17/2014 11:08:14.930,1.2969,-1.0952,0.105
12/17/2014 11:08:14.940,0.9507,-0.2695,-0.0093
12/17/2014 11:08:14.950,0.4946,0.5806,0.1855
12/17/2014 11:08:14.960,-0.3335,0.6421,0.2148
12/17/2014 11:08:14.970,-0.6763,0.6221,0.3921
12/17/2014 11:08:14.980,-1.0591,0.835,0.3438
12/17/2014 11:08:14.990,-1.4673,1.0308,0.2988
12/17/2014 11:08:15.000,-1.5615,0.9521,0.2588
12/17/2014 11:08:15.009,-1.2793,0.7451,0.0181
12/17/2014 11:08:15.019,-0.9907,0.6621,-0.27
12/17/2014 11:08:15.029,-0.6968,0.2329,-0.3008
12/17/2014 11:08:15.039,-0.5171,-0.1924,-0.0874
12/17/2014 11:08:15.049,-0.0762,-0.2769,0.0962
12/17/2014 11:08:15.059,0.2939,-0.1763,0.2183
12/17/2014 11:08:15.069,-0.0815,-0.061,0.123
12/17/2014 11:08:15.079,-0.2788,-0.0864,-0.0425
12/17/2014 11:08:15.089,-0.1357,-0.1445,-0.0254
12/17/2014 11:08:15.099,0.3228,-0.3359,-0.1509
12/17/2014 11:08:15.109,0.9072,-0.2222,0.0254
12/17/2014 11:08:15.119,1.3442,0.5713,0.4092
12/17/2014 11:08:15.130,1.416,0.9038,0.5688
12/17/2014 11:08:15.140,1.999,0.8911,0.2612
12/17/2014 11:08:15.150,2.3052,0.1558,0.0723
12/17/2014 11:08:15.160,2.3276,0.1221,0.4053
12/17/2014 11:08:15.170,3.0356,-0.3423,0.5742
12/17/2014 11:08:15.180,3.1328,-0.605,0.002
12/17/2014 11:08:15.190,2.7295,-0.4053,-0.376
12/17/2014 11:08:15.200,2.4551,-0.2358,-0.2412
12/17/2014 11:08:15.210,2.2598,-0.0205,-0.0186
12/17/2014 11:08:15.220,2.4795,0.0127,0.0854
12/17/2014 11:08:15.230,2.4316,-0.1963,-0.2153
12/17/2014 11:08:15.240,2.522,-0.3643,-0.377
12/17/2014 11:08:15.250,2.4941,0.041,-0.4365
12/17/2014 11:08:15.259,2.0234,0.3823,-0.4858
12/17/2014 11:08:15.269,1.356,0.8057,-0.5684
12/17/2014 11:08:15.279,1.2798,0.8755,-0.3716
12/17/2014 11:08:15.289,1.3989,0.605,-0.0264
12/17/2014 11:08:15.299,0.9634,0.3779,0.124
12/17/2014 11:08:15.309,-0.0718,0.1538,0.1943
12/17/2014 11:08:15.319,-1.041,0.0156,0.0371
12/17/2014 11:08:15.329,-1.4644,-0.0493,0.1631
12/17/2014 11:08:15.339,-1.3584,0.0728,0.2344
12/17/2014 11:08:15.349,-0.9331,0.0488,0.1138
12/17/2014 11:08:15.359,-0.5972,-0.1514,-0.1294
12/17/2014 11:08:15.369,-0.4922,-0.1758,-0.3232
12/17/2014 11:08:15.380,-0.3901,-0.1577,-0.2617
12/17/2014 11:08:15.390,-0.2495,0.0215,-0.1543
12/17/2014 11:08:15.400,-0.0327,0.1948,0.0293
12/17/2014 11:08:15.410,0.2222,0.481,0.2109
12/17/2014 11:08:15.420,0.2207,0.7251,0.1309
12/17/2014 11:08:15.430,0.0796,0.8921,-0.1157
12/17/2014 11:08:15.440,0.0112,0.9321,-0.4302
12/17/2014 11:08:15.450,0.1714,1.2861,-0.3672
12/17/2014 11:08:15.460,0.686,1.8364,0.2817
12/17/2014 11:08:15.470,0.6392,2.1855,0.0864
12/17/2014 11:08:15.480,0.7915,1.7485,-0.2622
12/17/2014 11:08:15.490,2.4961,1.1646,-0.2739
12/17/2014 11:08:15.500,4.8667,0.8936,-0.144
12/17/2014 11:08:15.509,5.6904,0.5371,-1.1196
12/17/2014 11:08:15.519,4.3066,-0.3413,-1.0283
12/17/2014 11:08:15.529,3.7178,-1.1626,-0.0649
12/17/2014 11:08:15.539,3.1201,-1.0435,-0.2407
12/17/2014 11:08:15.549,2.4609,-0.9771,-0.3311
12/17/2014 11:08:15.559,2.2847,-1.3906,0.0234
12/17/2014 11:08:15.569,2.2046,-1.438,0.167
12/17/2014 11:08:15.579,1.5933,-1.1055,-0.0493
12/17/2014 11:08:15.589,1.0669,-0.6177,-0.0415
12/17/2014 11:08:15.599,0.8882,0.1616,-0.1113
12/17/2014 11:08:15.609,0.4199,0.7266,-0.1533
12/17/2014 11:08:15.619,-0.645,0.4653,-0.1978
12/17/2014 11:08:15.630,-0.9312,0.6343,0.3784
12/17/2014 11:08:15.640,-1.3237,0.8018,0.5942
12/17/2014 11:08:15.650,-1.8911,0.7202,0.4326
12/17/2014 11:08:15.660,-1.8633,0.5806,0.0898
12/17/2014 11:08:15.670,-1.3784,0.5361,-0.123
12/17/2014 11:08:15.680,-0.9834,0.3438,-0.2876
12/17/2014 11:08:15.690,-0.4907,0.082,-0.2686
12/17/2014 11:08:15.700,-0.061,0.0503,-0.1157
12/17/2014 11:08:15.710,-0.1538,-0.0454,0.0029
12/17/2014 11:08:15.720,0.106,0.0015,0.251
12/17/2014 11:08:15.730,0.2109,0.29,0.2031
12/17/2014 11:08:15.740,0.0889,0.4468,0.1592
12/17/2014 11:08:15.750,0.0732,0.1611,0.1621
12/17/2014 11:08:15.759,0.2437,-0.1875,-0.1357
12/17/2014 11:08:15.769,0.8223,-0.6528,-0.4316
12/17/2014 11:08:15.779,1.0098,-0.6807,-0.2207
12/17/2014 11:08:15.789,1.3135,0.2764,1.188
12/17/2014 11:08:15.799,1.1338,1.0039,1.7437
12/17/2014 11:08:15.809,1.1274,0.437,0.3296
12/17/2014 11:08:15.819,1.9526,0.2632,-0.2886
12/17/2014 11:08:15.829,3.8628,-0.7319,0.2314
12/17/2014 11:08:15.839,3.7905,-0.7681,0.2778
12/17/2014 11:08:15.849,3.1729,-0.542,-0.1846
12/17/2014 11:08:15.859,2.6216,-0.0903,-0.2764
12/17/2014 11:08:15.869,2.0122,-0.0269,0.0684
12/17/2014 11:08:15.880,1.8931,-0.1387,0.1074
12/17/2014 11:08:15.890,2.1719,-0.3174,0.0967
12/17/2014 11:08:15.900,2.8511,0.1807,-0.2817
12/17/2014 11:08:15.910,3.0977,0.0986,-0.4102
12/17/2014 11:08:15.920,2.3887,0.2021,-0.7778
12/17/2014 11:08:15.930,1.8569,0.7476,-0.688
12/17/2014 11:08:15.940,1.249,0.9585,-0.6377
12/17/2014 11:08:15.950,0.7979,0.7178,-0.3516
12/17/2014 11:08:15.960,0.2627,0.3242,0.0884
12/17/2014 11:08:15.970,-0.3867,0.1538,0.1846
12/17/2014 11:08:15.980,-0.958,0.2246,-0.0044
12/17/2014 11:08:15.990,-1.2168,0.3486,-0.125
12/17/2014 11:08:16.000,-1.1807,0.3569,-0.2012
12/17/2014 11:08:16.009,-0.9116,0.2607,-0.2617
12/17/2014 11:08:16.019,-0.6504,0.3105,-0.3193
12/17/2014 11:08:16.029,-0.5991,0.3135,-0.3433
12/17/2014 11:08:16.039,-0.6035,0.2808,-0.2832
12/17/2014 11:08:16.049,-0.3867,0.1382,-0.0352
12/17/2014 11:08:16.049,-0.1279,0.0542,0.2671
12/17/2014 11:08:16.069,-0.0312,0.1416,0.3779
12/17/2014 11:08:16.069,-0.0972,0.2866,0.1846
12/17/2014 11:08:16.089,-0.0918,0.2886,-0.0527
12/17/2014 11:08:16.099,-0.084,0.5186,-0.3423
12/17/2014 11:08:16.109,0.5112,1.2485,0.0308
12/17/2014 11:08:16.119,1.1177,1.6143,0.5273
12/17/2014 11:08:16.130,1.0127,1.6157,-0.0718
12/17/2014 11:08:16.140,2.4214,1.105,-0.0869
12/17/2014 11:08:16.140,4.5132,1.3306,-0.7671
12/17/2014 11:08:16.160,5.8687,1.3276,-1.377
12/17/2014 11:08:16.170,4.1479,0.4907,-0.9639
12/17/2014 11:08:16.180,2.8965,-0.2524,0.0239
12/17/2014 11:08:16.190,2.7134,-0.6841,0.0723
12/17/2014 11:08:16.200,2.269,-0.9707,-0.1416
12/17/2014 11:08:16.210,2.1685,-1.2456,-0.1128
12/17/2014 11:08:16.220,2.1875,-1.5449,0.1826
12/17/2014 11:08:16.230,2.3242,-1.5786,0.1836
12/17/2014 11:08:16.230,1.584,-1.1396,-0.1006
12/17/2014 11:08:16.250,0.9365,-0.2373,-0.395
12/17/2014 11:08:16.259,0.4922,0.8306,-0.5229
12/17/2014 11:08:16.269,-0.3838,0.4663,-0.353
12/17/2014 11:08:16.279,-0.3745,0.4126,0.0903
12/17/2014 11:08:16.289,-0.7358,0.7349,0.3062
12/17/2014 11:08:16.299,-1.3931,0.7646,0.5117
12/17/2014 11:08:16.299,-1.834,0.6162,0.4097
12/17/2014 11:08:16.319,-1.6797,0.4624,0.2114
12/17/2014 11:08:16.319,-1.2778,0.415,-0.0815
12/17/2014 11:08:16.339,-0.8853,0.0645,-0.1704
12/17/2014 11:08:16.349,-0.2822,-0.2368,-0.1084
12/17/2014 11:08:16.359,0.0029,-0.332,-0.0415
12/17/2014 11:08:16.369,-0.147,-0.2979,-0.0679
12/17/2014 11:08:16.380,0.0229,-0.272,0.0942
12/17/2014 11:08:16.390,0.2305,0.0146,0.1895
12/17/2014 11:08:16.390,0.1343,0.0044,0.1812
12/17/2014 11:08:16.410,0.041,-0.3169,-0.0039
12/17/2014 11:08:16.420,0.4209,-0.604,0.002
12/17/2014 11:08:16.430,1.4053,0.2256,1.0596
12/17/2014 11:08:16.440,1.8506,1.3447,1.0713
12/17/2014 11:08:16.450,1.7393,1.2168,-0.1963
12/17/2014 11:08:16.460,3.605,0.7441,-0.8086
12/17/2014 11:08:16.470,3.5952,-0.2686,0.0547
12/17/2014 11:08:16.480,3.0605,-0.5791,0.3994
12/17/2014 11:08:16.480,2.6206,-0.6694,0.3223
12/17/2014 11:08:16.500,2.1201,-0.168,0.2241
12/17/2014 11:08:16.509,1.8579,0.2642,0.2739
12/17/2014 11:08:16.519,1.5898,0.3213,0.1616
12/17/2014 11:08:16.529,1.3604,0.4409,0.1079
12/17/2014 11:08:16.539,2.0317,0.5347,-0.1187
12/17/2014 11:08:16.549,2.9092,0.6216,-0.2529
12/17/2014 11:08:16.549,2.832,0.3604,-0.6558
12/17/2014 11:08:16.569,2.3296,0.3906,-0.6123
12/17/2014 11:08:16.569,1.6631,0.2246,-0.4399
12/17/2014 11:08:16.589,1.5732,0.2993,-0.3252
12/17/2014 11:08:16.599,1.1953,0.6289,-0.1099
12/17/2014 11:08:16.609,0.7461,0.6226,0.187
12/17/2014 11:08:16.619,0.3296,0.4585,0.2886
12/17/2014 11:08:16.630,-0.3003,0.3027,0.0229
12/17/2014 11:08:16.640,-0.8164,0.3345,-0.2036
12/17/2014 11:08:16.640,-1.0254,0.2402,-0.1479
12/17/2014 11:08:16.660,-1.0073,0.1748,-0.125
12/17/2014 11:08:16.670,-0.8037,-0.0161,-0.0938
12/17/2014 11:08:16.680,-0.4824,0.0054,-0.0796
12/17/2014 11:08:16.690,-0.6338,0.0864,-0.1475
12/17/2014 11:08:16.700,-0.731,0.0806,-0.189
12/17/2014 11:08:16.710,-0.6865,-0.0059,0.0576
12/17/2014 11:08:16.720,-0.4746,-0.0078,0.3584
12/17/2014 11:08:16.730,-0.3228,0.0991,0.4116
12/17/2014 11:08:16.730,-0.3608,0.2915,0.1499
12/17/2014 11:08:16.750,-0.2827,0.3115,-0.1504
12/17/2014 11:08:16.759,-0.0508,0.271,-0.4312
12/17/2014 11:08:16.769,0.2529,0.7637,-0.374
12/17/2014 11:08:16.779,1.0239,1.479,0.2114
12/17/2014 11:08:16.789,1.4229,1.6938,0.4321
12/17/2014 11:08:16.799,1.3979,1.8916,-0.3438
12/17/2014 11:08:16.799,3.1743,1.3818,-0.4478
12/17/2014 11:08:16.819,5.4771,1.2134,-1.1938
12/17/2014 11:08:16.819,5.2388,0.791,-1.1499
12/17/2014 11:08:16.839,3.5552,-0.3008,-0.6274
12/17/2014 11:08:16.849,3.127,-0.8145,-0.2314
12/17/2014 11:08:16.859,2.9111,-1.0659,-0.3066
12/17/2014 11:08:16.869,2.6875,-1.5342,-0.3081
12/17/2014 11:08:16.880,2.7002,-1.8965,-0.0791
12/17/2014 11:08:16.890,1.834,-1.6816,-0.1191
12/17/2014 11:08:16.890,1.2729,-1.3213,-0.2036
12/17/2014 11:08:16.910,1.0356,-0.3984,-0.0474
12/17/2014 11:08:16.920,0.835,0.5698,0.0117
12/17/2014 11:08:16.930,-0.0625,0.3149,-0.1699
12/17/2014 11:08:16.940,-0.4468,0.2588,0.0654
12/17/2014 11:08:16.950,-0.9199,0.583,0.2783
12/17/2014 11:08:16.960,-1.5518,0.7197,0.5127
12/17/2014 11:08:16.970,-1.8481,0.5542,0.5771
12/17/2014 11:08:16.980,-1.7886,0.4917,0.1724
12/17/2014 11:08:16.980,-1.373,0.1973,-0.0859
12/17/2014 11:08:17.000,-0.8228,0.1353,-0.1094
12/17/2014 11:08:17.009,-0.4985,0.0225,-0.1343
12/17/2014 11:08:17.019,-0.2085,-0.0869,-0.0869
12/17/2014 11:08:17.029,-0.396,-0.0791,-0.0903
12/17/2014 11:08:17.039,-0.2036,-0.1313,0.0664
12/17/2014 11:08:17.049,0.0928,-0.0879,0.2539
12/17/2014 11:08:17.049,0.1357,-0.0854,0.0991
12/17/2014 11:08:17.069,0.3403,-0.4736,0.0186
12/17/2014 11:08:17.069,1.2461,-0.0571,1.0039
12/17/2014 11:08:17.089,1.9775,1.0752,1.4106
12/17/2014 11:08:17.099,2.062,1.0786,0.3184
12/17/2014 11:08:17.109,3.668,1.0132,-0.9204
12/17/2014 11:08:17.119,4.084,-0.1704,-0.1567
12/17/2014 11:08:17.130,3.5244,-0.561,0.04
12/17/2014 11:08:17.140,2.7075,-0.4697,0.0024
12/17/2014 11:08:17.140,2.061,0.1602,0.1494
12/17/2014 11:08:17.160,1.6157,0.4561,0.2837
12/17/2014 11:08:17.170,1.2544,0.5767,0.2212
12/17/2014 11:08:17.180,1.1089,0.668,0.0879
12/17/2014 11:08:17.190,1.7842,0.9775,-0.1094
12/17/2014 11:08:17.200,2.6802,0.9326,-0.2798
12/17/2014 11:08:17.210,2.6343,0.6108,-0.8154
12/17/2014 11:08:17.220,2.0181,0.3774,-0.7163
12/17/2014 11:08:17.230,1.6743,0.1626,-0.5815
12/17/2014 11:08:17.230,1.3853,-0.0767,-0.4912
12/17/2014 11:08:17.250,1.0879,0.0532,-0.0747
12/17/2014 11:08:17.259,0.563,0.123,0.2002
12/17/2014 11:08:17.269,0.0596,-0.0396,0.4185
12/17/2014 11:08:17.279,-0.5303,-0.2031,0.3027
12/17/2014 11:08:17.289,-0.9209,-0.0308,-0.0522
12/17/2014 11:08:17.299,-1.458,-0.229,0.0957
12/17/2014 11:08:17.299,-1.1025,-0.1455,0.1255
12/17/2014 11:08:17.319,-0.481,-0.2944,-0.0264
12/17/2014 11:08:17.319,-0.2788,-0.2944,-0.0859
12/17/2014 11:08:17.339,-0.123,-0.2432,-0.04
12/17/2014 11:08:17.349,-0.1001,-0.1519,-0.0029
12/17/2014 11:08:17.359,0.0366,-0.0186,0.1807
12/17/2014 11:08:17.369,0.1631,0.1523,0.3833
12/17/2014 11:08:17.380,0.063,0.2822,0.3472
12/17/2014 11:08:17.390,-0.1758,0.3311,0.0747
12/17/2014 11:08:17.390,-0.165,0.2354,-0.167
12/17/2014 11:08:17.410,0.0859,0.54,-0.2017
12/17/2014 11:08:17.420,0.75,1.6147,0.6245
12/17/2014 11:08:17.430,0.5552,2.3359,0.4795
12/17/2014 11:08:17.440,0.4062,1.8193,0.0249
12/17/2014 11:08:17.450,1.876,0.8286,0.0083
12/17/2014 11:08:17.460,3.9248,0.9644,-0.8257
12/17/2014 11:08:17.470,7.0137,1.436,-1.3989
12/17/2014 11:08:17.480,4.354,1.4424,-1.3306
12/17/2014 11:08:17.480,3.2593,0.0391,0.1885
12/17/2014 11:08:17.500,3.1421,-0.5908,0.3994
12/17/2014 11:08:17.509,2.8188,-0.8115,-0.4497
12/17/2014 11:08:17.519,2.0591,-0.9688,-0.4736
12/17/2014 11:08:17.529,1.9429,-1.375,0.0552
12/17/2014 11:08:17.539,2.0015,-1.8159,0.3403
12/17/2014 11:08:17.549,1.7876,-1.5781,0.1704
12/17/2014 11:08:17.549,1.2822,-0.8115,-0.4785
12/17/2014 11:08:17.569,0.8555,0.8057,-0.5562
12/17/2014 11:08:17.569,0.2876,1.0908,-0.0815
12/17/2014 11:08:17.589,-0.8882,0.5596,-0.0557
12/17/2014 11:08:17.599,-1.208,0.8169,0.3364
12/17/2014 11:08:17.609,-1.6646,0.999,0.5454
12/17/2014 11:08:17.619,-2.1113,1.0342,0.3887
12/17/2014 11:08:17.630,-1.8779,0.8667,0.0449
12/17/2014 11:08:17.640,-1.3862,0.5664,-0.3203
12/17/2014 11:08:17.640,-0.8828,0.1357,-0.478
12/17/2014 11:08:17.660,-0.2925,-0.3232,-0.2588
12/17/2014 11:08:17.670,-0.0737,-0.3457,-0.2563
12/17/2014 11:08:17.680,-0.1909,-0.4912,0.061
12/17/2014 11:08:17.690,0.25,-0.394,0.6016
12/17/2014 11:08:17.700,0.415,-0.1245,0.5195
12/17/2014 11:08:17.710,0.1616,0.1587,0.2573
12/17/2014 11:08:17.720,0.0454,0.0225,0.0034
12/17/2014 11:08:17.730,0.3662,-0.4526,-0.5542
12/17/2014 11:08:17.730,1.1162,-0.9424,-0.3643
12/17/2014 11:08:17.750,2.145,-0.2256,1.8413
12/17/2014 11:08:17.759,2.5454,0.9873,2.1543
12/17/2014 11:08:17.769,1.7109,0.6714,-0.147
12/17/2014 11:08:17.779,4.1992,0.4785,-1.3091
12/17/2014 11:08:17.789,4.0273,0.062,-0.9121
12/17/2014 11:08:17.799,2.8228,0.5825,-0.3521
12/17/2014 11:08:17.799,1.8379,0.3198,-0.0596
12/17/2014 11:08:17.819,1.4868,0.3779,0.2192
12/17/2014 11:08:17.819,1.2026,0.189,0.3315
12/17/2014 11:08:17.839,1.5908,-0.1284,0.395
12/17/2014 11:08:17.849,2.0029,-0.1284,0.1401
12/17/2014 11:08:17.859,3.0898,0.3555,-0.2627
12/17/2014 11:08:17.869,3.6279,0.3848,-0.5498
12/17/2014 11:08:17.880,2.8867,-0.1177,-1.0264
12/17/2014 11:08:17.890,1.9443,-0.4194,-0.7412
12/17/2014 11:08:17.890,1.2378,-0.1089,-0.3594
12/17/2014 11:08:17.910,0.6948,0.3188,0.0586
12/17/2014 11:08:17.920,0.1055,0.1709,0.418
12/17/2014 11:08:17.930,-0.6104,0.041,0.2695
12/17/2014 11:08:17.940,-1.1323,0.2285,0.085
12/17/2014 11:08:17.950,-1.2427,0.3633,-0.0923
12/17/2014 11:08:17.960,-0.9634,0.3193,-0.0054
12/17/2014 11:08:17.970,-0.6455,0.085,0.0576
12/17/2014 11:08:17.980,-0.4609,-0.1782,0.0225
12/17/2014 11:08:17.980,-0.4771,-0.2339,-0.0454
12/17/2014 11:08:18.000,-0.3408,-0.3149,0.1064
12/17/2014 11:08:18.009,-0.0859,-0.106,0.3135
12/17/2014 11:08:18.019,0.0718,0.0322,0.4341
12/17/2014 11:08:18.029,0.0688,0.1333,0.3613
12/17/2014 11:08:18.039,-0.0503,0.3335,0.2021
12/17/2014 11:08:18.049,-0.0103,0.4624,-0.0864
12/17/2014 11:08:18.049,0.0786,0.3052,-0.2349
12/17/2014 11:08:18.069,0.2021,0.5649,-0.3359
12/17/2014 11:08:18.069,0.8027,1.3179,0.1445
12/17/2014 11:08:18.089,1.1958,1.8032,0.6128
12/17/2014 11:08:18.099,0.9082,1.6133,0.1133
12/17/2014 11:08:18.109,2,1.0151,-0.2026
12/17/2014 11:08:18.119,3.8022,0.7349,-0.7095
12/17/2014 11:08:18.130,5.8706,0.9067,-1.1714
12/17/2014 11:08:18.140,4.7676,0.1597,-0.6621
12/17/2014 11:08:18.140,3.7998,-0.4136,-0.0693
12/17/2014 11:08:18.160,3.0864,-0.4917,-0.3315
12/17/2014 11:08:18.170,2.2881,-0.7798,-0.5381
12/17/2014 11:08:18.180,2.0854,-1.3062,-0.1592
12/17/2014 11:08:18.190,2.1851,-1.4292,0.2266
12/17/2014 11:08:18.200,1.9146,-1.2061,0.2554
12/17/2014 11:08:18.210,1.3975,-0.4102,-0.0054
12/17/2014 11:08:18.220,0.8354,0.5303,-0.2925
12/17/2014 11:08:18.230,-0.2598,1.1455,-0.5845
12/17/2014 11:08:18.230,-0.6543,0.8091,-0.0869
12/17/2014 11:08:18.250,-0.8491,0.9561,0.2505
12/17/2014 11:08:18.259,-1.3667,1.1997,0.1948
12/17/2014 11:08:18.269,-1.6548,1.0659,0.1748
12/17/2014 11:08:18.279,-1.5542,0.6655,0.0293
12/17/2014 11:08:18.289,-1.2295,0.4062,-0.2554
12/17/2014 11:08:18.299,-0.9717,0.3013,-0.395
12/17/2014 11:08:18.299,-0.5122,-0.1392,-0.166
12/17/2014 11:08:18.319,-0.1577,-0.4009,-0.2466
12/17/2014 11:08:18.319,0.0244,-0.7329,-0.0278
12/17/2014 11:08:18.339,-0.0156,-0.6362,0.522
12/17/2014 11:08:18.349,0.4185,-0.3213,0.6187
12/17/2014 11:08:18.359,0.2432,-0.1172,0.4473
12/17/2014 11:08:18.369,-0.0264,-0.3354,0.1885
12/17/2014 11:08:18.380,0.0884,-0.5669,-0.0234
12/17/2014 11:08:18.390,1.3242,0.0347,1.0771
12/17/2014 11:08:18.390,2.0537,0.6309,1.3091
12/17/2014 11:08:18.410,2.6787,0.4448,0.1982
12/17/2014 11:08:18.420,4.498,0.2134,-1.0317
12/17/2014 11:08:18.430,3.8501,-0.3286,-0.5156
12/17/2014 11:08:18.440,2.8872,-0.0835,-0.3887
12/17/2014 11:08:18.450,2.019,0.0854,-0.229
12/17/2014 11:08:18.460,1.7739,0.3301,0.0205
12/17/2014 11:08:18.470,1.6543,0.3457,0.2178
12/17/2014 11:08:18.480,1.4624,0.3765,0.064
12/17/2014 11:08:18.480,1.9297,0.481,0.1343
12/17/2014 11:08:18.500,2.7427,0.6152,-0.1089
12/17/2014 11:08:18.509,2.9917,0.4219,-0.6465
12/17/2014 11:08:18.519,2.6729,-0.3125,-0.6836
12/17/2014 11:08:18.529,2.0396,-0.4834,-0.6377
12/17/2014 11:08:18.539,1.5889,-0.48,-0.3833
12/17/2014 11:08:18.549,1.0405,-0.2188,-0.1167
12/17/2014 11:08:18.549,0.4927,0.0757,0.2944
12/17/2014 11:08:18.569,0.2114,0.0679,0.46
12/17/2014 11:08:18.569,-0.4458,0.0391,0.1753
12/17/2014 11:08:18.589,-1.249,0.2344,-0.1011
12/17/2014 11:08:18.599,-1.7061,0.2788,-0.106
12/17/2014 11:08:18.609,-1.5762,0.3379,-0.0713
12/17/2014 11:08:18.619,-0.5996,0.1943,0.0669
12/17/2014 11:08:18.630,-0.04,0.0454,0.0405
12/17/2014 11:08:18.640,-0.0767,-0.1001,-0.0112
12/17/2014 11:08:18.640,-0.1411,-0.145,0.084
12/17/2014 11:08:18.660,-0.0332,-0.0469,0.335
12/17/2014 11:08:18.670,0.0298,0.1582,0.4414
12/17/2014 11:08:18.680,0.0259,0.2646,0.3804
12/17/2014 11:08:18.690,0.002,0.311,0.3013
12/17/2014 11:08:18.700,0.0181,0.4839,0.1055
12/17/2014 11:08:18.710,0.0981,0.5,-0.2065
12/17/2014 11:08:18.720,0.1855,0.6089,-0.4463
12/17/2014 11:08:18.730,0.4976,1.0566,0.0591
12/17/2014 11:08:18.730,1.0444,1.8159,0.4668
12/17/2014 11:08:18.750,0.7666,1.936,-0.0479
12/17/2014 11:08:18.759,1.2256,1.7197,-0.5991
12/17/2014 11:08:18.769,2.9282,1.3237,-0.7363
12/17/2014 11:08:18.779,5.124,1.207,-0.6606
12/17/2014 11:08:18.789,4.7192,0.606,-0.813
12/17/2014 11:08:18.799,3.3979,0.1226,-0.1187
12/17/2014 11:08:18.799,3.5278,-1.0068,0.1421
12/17/2014 11:08:18.819,3.8037,-1.6421,-0.2061
12/17/2014 11:08:18.819,2.3174,-1.3613,-0.5381
12/17/2014 11:08:18.839,1.7446,-1.2075,-0.2339
12/17/2014 11:08:18.849,1.7188,-1.2373,0.0049
12/17/2014 11:08:18.859,1.6753,-0.9341,0.1758
12/17/2014 11:08:18.869,1.4644,-0.0146,-0.1113
12/17/2014 11:08:18.880,0.8301,0.7397,-0.2466
12/17/2014 11:08:18.890,0.2114,1.1357,-0.2847
12/17/2014 11:08:18.890,-0.5396,1.1743,-0.1689
12/17/2014 11:08:18.910,-0.8701,1.2319,0.1333
12/17/2014 11:08:18.920,-1.0952,1.062,0.29
12/17/2014 11:08:18.930,-1.3628,0.8745,0.2632
12/17/2014 11:08:18.940,-1.5327,0.5781,0.0684
12/17/2014 11:08:18.950,-1.2593,0.3809,-0.1245
12/17/2014 11:08:18.960,-0.9175,0.3052,-0.3774
12/17/2014 11:08:18.970,-0.562,-0.0708,-0.4062
12/17/2014 11:08:18.980,-0.1406,-0.4712,-0.1621
12/17/2014 11:08:18.980,-0.3687,-0.5601,-0.2339
12/17/2014 11:08:19.000,-0.1133,-0.481,0.4214
12/17/2014 11:08:19.009,0.4028,-0.3208,0.6323
12/17/2014 11:08:19.019,0.1465,-0.1655,0.3022
12/17/2014 11:08:19.029,-0.1763,-0.4634,-0.0566
12/17/2014 11:08:19.039,0.106,-0.7891,-0.0381
12/17/2014 11:08:19.049,1.3042,-0.0391,1.5405
12/17/2014 11:08:19.049,2.0898,0.7393,1.9521
12/17/2014 11:08:19.069,2.5088,0.687,0.3486
12/17/2014 11:08:19.069,4.6738,0.4253,-1.1841
12/17/2014 11:08:19.089,4.5957,-0.166,-0.5591
12/17/2014 11:08:19.099,2.9956,0.0391,-0.4004
12/17/2014 11:08:19.109,1.7544,0.2217,-0.2124
12/17/2014 11:08:19.119,1.6001,0.3169,0.1797
12/17/2014 11:08:19.130,1.4243,0.3105,0.3682
12/17/2014 11:08:19.140,1.4468,0.1899,0.2407
12/17/2014 11:08:19.140,2.0308,0.1328,0.3701
12/17/2014 11:08:19.160,2.7446,0.394,-0.1274
12/17/2014 11:08:19.170,3.0449,0.1924,-0.645
12/17/2014 11:08:19.180,2.7554,-0.3325,-0.8887
12/17/2014 11:08:19.190,2.0908,-0.6211,-0.8096
12/17/2014 11:08:19.200,1.5278,-0.4717,-0.4385
12/17/2014 11:08:19.210,0.937,-0.1274,-0.0679
12/17/2014 11:08:19.220,0.4043,0.1885,0.3389
12/17/2014 11:08:19.230,0.1157,0.3657,0.3311
12/17/2014 11:08:19.230,-0.5757,0.3643,0.0557
12/17/2014 11:08:19.250,-1.1924,0.4097,-0.145
12/17/2014 11:08:19.259,-1.5977,0.3174,-0.0186
12/17/2014 11:08:19.269,-1.3301,0.2949,0.0796
12/17/2014 11:08:19.279,-0.5005,0.1167,0.147
12/17/2014 11:08:19.289,-0.0581,-0.0786,0.0977
12/17/2014 11:08:19.299,-0.1387,-0.1328,0.0376
12/17/2014 11:08:19.299,-0.1406,-0.0435,0.2534
12/17/2014 11:08:19.319,-0.1177,0.1724,0.377
12/17/2014 11:08:19.319,-0.0791,0.3213,0.355
12/17/2014 11:08:19.339,-0.105,0.3799,0.251
12/17/2014 11:08:19.349,-0.1704,0.4814,0.1099
12/17/2014 11:08:19.359,-0.0669,0.5342,0.0093
12/17/2014 11:08:19.369,0.084,0.4082,-0.1602
12/17/2014 11:08:19.380,0.1724,0.667,-0.3838
12/17/2014 11:08:19.390,0.7012,1.1812,-0.0151
12/17/2014 11:08:19.390,1.0972,1.5356,0.5029
12/17/2014 11:08:19.410,1.0249,1.7314,-0.0195
12/17/2014 11:08:19.420,1.6772,1.4512,-0.3604
12/17/2014 11:08:19.430,3.5586,0.7891,-0.4482
12/17/2014 11:08:19.440,5.5386,0.3657,-1.0894
12/17/2014 11:08:19.450,5.1289,0.2134,-0.5864
12/17/2014 11:08:19.460,4.3354,-0.8389,-0.0654
12/17/2014 11:08:19.470,3.7559,-1.1792,-0.2275
12/17/2014 11:08:19.480,2.5317,-0.8359,-0.6494
12/17/2014 11:08:19.480,2.0093,-1.0366,-0.3516
12/17/2014 11:08:19.500,2.0938,-1.3506,0.1362
12/17/2014 11:08:19.509,1.9751,-0.8989,0.2227
12/17/2014 11:08:19.519,1.5747,-0.332,0.061
12/17/2014 11:08:19.529,0.9873,0.6323,-0.3267
12/17/2014 11:08:19.539,0.0298,1.1567,-0.4946
12/17/2014 11:08:19.549,-0.6968,1.022,-0.1387
12/17/2014 11:08:19.549,-0.7437,1.0747,0.3447
12/17/2014 11:08:19.569,-1.2539,1.2021,0.2432
12/17/2014 11:08:19.569,-1.6299,0.895,0.1431
12/17/2014 11:08:19.589,-1.4404,0.6572,0.1162
12/17/2014 11:08:19.599,-1.2803,0.2563,-0.062
12/17/2014 11:08:19.609,-1.022,0.1504,-0.2373
12/17/2014 11:08:19.619,-0.8027,0.0649,-0.3301
12/17/2014 11:08:19.630,-0.3135,-0.2988,-0.2104
12/17/2014 11:08:19.640,-0.2036,-0.6523,-0.1719
12/17/2014 11:08:19.640,-0.168,-0.6777,0.1987
12/17/2014 11:08:19.660,0.0981,-0.3232,0.6265
12/17/2014 11:08:19.670,0.4956,-0.2427,0.6348
12/17/2014 11:08:19.680,0.1533,-0.0625,0.2661
12/17/2014 11:08:19.690,-0.0093,-0.4873,-0.166
12/17/2014 11:08:19.700,0.6689,-0.8008,-0.1924
12/17/2014 11:08:19.710,2.1294,-0.04,1.7212
12/17/2014 11:08:19.720,2.5732,0.9985,1.9688
12/17/2014 11:08:19.730,2.1797,0.8643,0.1274
12/17/2014 11:08:19.730,4.4814,0.4824,-1.394
12/17/2014 11:08:19.750,4.3965,0.0186,-1.0508
12/17/2014 11:08:19.759,2.7949,0.2876,-0.4004
12/17/2014 11:08:19.769,2.001,-0.0762,0.0928
12/17/2014 11:08:19.779,1.7524,-0.0415,0.3179
12/17/2014 11:08:19.789,1.3872,-0.0229,0.3423
12/17/2014 11:08:19.799,1.3667,-0.1113,0.2832
12/17/2014 11:08:19.799,1.9424,-0.2412,0.1997
12/17/2014 11:08:19.819,2.5684,0.0591,-0.1538
12/17/2014 11:08:19.819,3.2266,-0.0679,-0.4946
12/17/2014 11:08:19.839,2.6548,0.0771,-0.7896
12/17/2014 11:08:19.849,1.8071,0.3115,-0.8428
12/17/2014 11:08:19.859,1.5063,0.5859,-0.459
12/17/2014 11:08:19.869,0.9536,0.5723,0.0474
12/17/2014 11:08:19.880,0.207,0.3955,0.2876
12/17/2014 11:08:19.890,-0.5903,-0.0967,0.0537
12/17/2014 11:08:19.890,-1.3032,-0.2207,-0.0718
12/17/2014 11:08:19.910,-1.6646,-0.2212,0.2217
12/17/2014 11:08:19.920,-1.4302,-0.0034,0.3423
12/17/2014 11:08:19.930,-0.7822,0.1226,0.3921
12/17/2014 11:08:19.940,-0.2871,-0.062,0.3003
12/17/2014 11:08:19.950,-0.1489,-0.2344,0.0947
12/17/2014 11:08:19.960,-0.1768,-0.1929,0.0923
12/17/2014 11:08:19.970,-0.0474,0.0767,0.2173
12/17/2014 11:08:19.980,0.0381,0.2812,0.249
12/17/2014 11:08:19.980,0.0337,0.3096,0.27
12/17/2014 11:08:20.000,-0.0181,0.3242,0.1226
12/17/2014 11:08:20.009,0.0737,0.4468,-0.0957
12/17/2014 11:08:20.019,0.186,0.5005,-0.3887
12/17/2014 11:08:20.029,0.1011,0.3525,-0.4937
12/17/2014 11:08:20.039,0.0986,0.5488,-0.5029
12/17/2014 11:08:20.049,0.772,1.3394,0.0034
12/17/2014 11:08:20.049,1.4077,1.9839,0.6675
12/17/2014 11:08:20.069,1.1426,2.4048,0.0234
12/17/2014 11:08:20.069,1.876,2.0542,-0.335
12/17/2014 11:08:20.089,4.1084,0.8882,-0.4771
12/17/2014 11:08:20.099,5.6997,-0.0044,-0.9473
12/17/2014 11:08:20.109,4.6709,0.2061,-0.4248
12/17/2014 11:08:20.119,4.3672,-0.9102,-0.4243
12/17/2014 11:08:20.130,3.7197,-1.2534,-0.8359
12/17/2014 11:08:20.140,2.3159,-0.9678,-0.8818
12/17/2014 11:08:20.140,2.1118,-1.3198,-0.3496
12/17/2014 11:08:20.160,1.7339,-1.311,0.3252
12/17/2014 11:08:20.170,1.3389,-0.9805,0.4785
12/17/2014 11:08:20.180,0.5425,0.0894,0.1089
12/17/2014 11:08:20.190,-0.2559,0.0522,0.2832
12/17/2014 11:08:20.200,-0.3984,0.1899,0.5586
12/17/2014 11:08:20.210,-0.5181,0.7607,0.5308
12/17/2014 11:08:20.220,-0.8564,1.0713,0.2324
12/17/2014 11:08:20.230,-1.1045,0.9365,0.1909
12/17/2014 11:08:20.230,-1.2231,0.6587,0.1802
12/17/2014 11:08:20.250,-1.1543,0.6143,-0.0483
12/17/2014 11:08:20.259,-1.1772,0.7012,-0.3726
12/17/2014 11:08:20.269,-1.0874,0.5063,-0.5796
12/17/2014 11:08:20.279,-0.6714,-0.0054,-0.2915
12/17/2014 11:08:20.289,-0.6104,-0.3281,-0.1772
12/17/2014 11:08:20.299,-0.2842,-0.4287,0.5396
12/17/2014 11:08:20.299,0.4443,-0.3594,0.6289
12/17/2014 11:08:20.319,0.082,-0.0527,0.2012
12/17/2014 11:08:20.319,-0.0337,-0.0239,0.0938
12/17/2014 11:08:20.339,0.2329,-0.4199,-0.3701
12/17/2014 11:08:20.349,1.1665,-0.5708,0.4468
12/17/2014 11:08:20.359,2.0088,0.1128,1.0581
12/17/2014 11:08:20.369,1.7979,0.1743,1.0156
12/17/2014 11:08:20.380,2.5552,0.0537,-0.0742
12/17/2014 11:08:20.390,4.4019,-0.5508,-0.6035
12/17/2014 11:08:20.390,3.2256,-0.1377,-0.4561
12/17/2014 11:08:20.410,2.3857,0.2803,-0.2871
12/17/2014 11:08:20.420,2.228,0.4409,-0.1606
12/17/2014 11:08:20.430,1.9966,0.2715,0.1616
12/17/2014 11:08:20.440,1.376,0.3682,-0.0264
12/17/2014 11:08:20.450,1.3032,0.2788,0.0186
12/17/2014 11:08:20.460,2.1274,0.146,0.0259
12/17/2014 11:08:20.470,3.3711,-0.2031,-0.1265
12/17/2014 11:08:20.480,3.0381,-0.3848,-0.6382
12/17/2014 11:08:20.490,2.2622,-0.4585,-0.7461
12/17/2014 11:08:20.500,1.6602,-0.0688,-0.585
12/17/2014 11:08:20.509,1.356,0.6782,-0.0791
12/17/2014 11:08:20.519,0.7031,0.4961,0.0142
12/17/2014 11:08:20.529,-0.2847,0.3403,-0.104
12/17/2014 11:08:20.539,-1.0908,0.3403,-0.0381
12/17/2014 11:08:20.549,-1.5791,0.2129,0.2256
12/17/2014 11:08:20.559,-1.8774,0.231,0.4375
12/17/2014 11:08:20.569,-1.6396,0.3213,0.7314
12/17/2014 11:08:20.579,-0.5796,0.2251,0.4443
12/17/2014 11:08:20.589,-0.1147,-0.0581,0.0952
12/17/2014 11:08:20.599,-0.1357,-0.2378,-0.0991
12/17/2014 11:08:20.609,-0.2183,-0.3184,-0.1123
12/17/2014 11:08:20.619,-0.061,-0.2827,0.0698
12/17/2014 11:08:20.630,0.1348,0.0269,0.04
12/17/2014 11:08:20.640,0.3711,0.4019,0.0605
12/17/2014 11:08:20.650,0.5161,0.6294,0.0234
12/17/2014 11:08:20.660,0.5132,1.0762,-0.3594
12/17/2014 11:08:20.670,0.4795,1.4448,-0.3213
12/17/2014 11:08:20.680,0.9883,1.8271,0.2983
12/17/2014 11:08:20.690,0.7036,2.2163,-0.0791
12/17/2014 11:08:20.700,0.8589,2.0322,-0.4478
12/17/2014 11:08:20.710,2.3594,1.4497,-0.6519
12/17/2014 11:08:20.720,4.3311,1.0259,-0.4722
12/17/2014 11:08:20.730,5.1475,0.5425,-0.6929
12/17/2014 11:08:20.740,3.9863,0.1021,-0.269
12/17/2014 11:08:20.750,4.0244,-0.7358,0.3311
12/17/2014 11:08:20.759,3.5664,-1.2119,0.0234
12/17/2014 11:08:20.769,2.0234,-0.9565,-0.7896
12/17/2014 11:08:20.779,1.7495,-1.147,-0.3457
12/17/2014 11:08:20.789,1.8999,-1.4185,0.188
12/17/2014 11:08:20.799,2.542,-1.1826,-0.0669
12/17/2014 11:08:20.809,1.1768,0.2598,-0.1606
12/17/2014 11:08:20.819,0.1978,0.1445,-0.145
12/17/2014 11:08:20.829,-0.0596,0.0869,-0.3228
12/17/2014 11:08:20.839,-0.6694,0.835,0.2368
12/17/2014 11:08:20.849,-0.9644,1.2915,0.3965
12/17/2014 11:08:20.859,-1.3442,1.0898,0.3784
12/17/2014 11:08:20.869,-1.604,0.8457,0.5156
12/17/2014 11:08:20.880,-1.4214,0.6123,0.2046
12/17/2014 11:08:20.890,-1.2007,0.395,-0.0869
12/17/2014 11:08:20.900,-0.8799,0.3389,-0.3584
12/17/2014 11:08:20.910,-0.4585,0.1792,-0.481
12/17/2014 11:08:20.920,-0.0796,-0.334,-0.2808
12/17/2014 11:08:20.930,0.021,-0.4468,-0.1719
12/17/2014 11:08:20.940,-0.1123,-0.5801,0.3608
12/17/2014 11:08:20.950,0.3018,-0.1675,0.6821
12/17/2014 11:08:20.960,0.1152,-0.0693,0.3013
12/17/2014 11:08:20.970,-0.1348,-0.3325,0.2051
12/17/2014 11:08:20.980,-0.0205,-0.8164,-0.0742
12/17/2014 11:08:20.990,1.3242,-0.0649,1.3457
12/17/2014 11:08:21.000,1.9697,0.7495,1.7183
12/17/2014 11:08:21.009,2.332,0.8521,0.5933
12/17/2014 11:08:21.019,5.3804,0.9131,-1.0806
12/17/2014 11:08:21.029,4.6689,-0.1133,-0.7964
12/17/2014 11:08:21.039,3.3452,-0.1562,-0.2642
12/17/2014 11:08:21.049,1.9668,-0.1182,-0.1704
12/17/2014 11:08:21.059,1.6528,0.0918,0.2202
12/17/2014 11:08:21.069,1.3936,0.1992,0.3994
12/17/2014 11:08:21.079,0.9971,0.2124,0.2866
12/17/2014 11:08:21.089,1.4111,0.2905,0.2251
12/17/2014 11:08:21.099,3.2324,0.3188,-0.0815
12/17/2014 11:08:21.109,3.3501,0.0122,-0.6445
12/17/2014 11:08:21.119,2.4653,-0.3193,-0.9819
12/17/2014 11:08:21.130,1.8252,-0.2881,-0.7925
12/17/2014 11:08:21.140,1.7256,-0.0376,-0.2485
12/17/2014 11:08:21.150,1.0112,0.3877,0.0063
12/17/2014 11:08:21.160,0.2461,0.4883,0.1729
12/17/2014 11:08:21.170,-0.5542,0.354,0.0254
12/17/2014 11:08:21.180,-1.4219,0.2061,-0.1387
12/17/2014 11:08:21.190,-1.7744,0.3296,0.0366
12/17/2014 11:08:21.200,-1.5894,0.2725,0.2998
12/17/2014 11:08:21.210,-0.7324,0.3018,0.377
12/17/2014 11:08:21.220,-0.1084,0.2178,0.2642
12/17/2014 11:08:21.230,-0.0903,0.0078,0.0376
12/17/2014 11:08:21.240,-0.2812,-0.1289,-0.0259
12/17/2014 11:08:21.250,-0.2393,-0.1201,0.0981
12/17/2014 11:08:21.259,-0.0908,0.0029,0.1982
12/17/2014 11:08:21.269,0.0225,0.1748,0.1597
12/17/2014 11:08:21.279,0.1489,0.3101,0.1509
12/17/2014 11:08:21.289,0.2808,0.6255,-0.0601
12/17/2014 11:08:21.299,0.3481,0.7754,-0.3257
12/17/2014 11:08:21.309,0.2593,0.5239,-0.4829
12/17/2014 11:08:21.319,0.2012,0.6577,-0.4419
12/17/2014 11:08:21.329,0.8906,1.3271,0.3203
12/17/2014 11:08:21.339,1.0522,2.021,0.7197
12/17/2014 11:08:21.349,0.9707,2.106,0.0435
12/17/2014 11:08:21.359,1.4946,1.6768,-0.5508
12/17/2014 11:08:21.369,3.1816,0.7422,-0.8574
12/17/2014 11:08:21.380,5.2437,0.0996,-0.6245
12/17/2014 11:08:21.390,4.9448,0.1729,0.022
12/17/2014 11:08:21.400,4.4277,-0.6743,0.2275
12/17/2014 11:08:21.410,4.0869,-1.5381,-0.2227
12/17/2014 11:08:21.420,2.6694,-1.3979,-0.9219
12/17/2014 11:08:21.430,1.9946,-1.3203,-0.3491
12/17/2014 11:08:21.440,2.0005,-1.21,0.23
12/17/2014 11:08:21.450,1.8164,-0.2822,0.1118
12/17/2014 11:08:21.460,1.2021,0.665,0.0078
12/17/2014 11:08:21.470,0.1929,0.5552,-0.3154
12/17/2014 11:08:21.480,-0.4126,0.5181,-0.3604
12/17/2014 11:08:21.490,-0.6187,0.9072,0.1401
12/17/2014 11:08:21.500,-0.8848,1.0557,0.4058
12/17/2014 11:08:21.509,-1.311,0.9067,0.3643
12/17/2014 11:08:21.519,-1.5815,0.5435,0.2764
12/17/2014 11:08:21.529,-1.4419,0.3584,0.1138
12/17/2014 11:08:21.539,-1.2603,0.519,-0.2632
12/17/2014 11:08:21.549,-1.1377,0.3989,-0.4756
12/17/2014 11:08:21.559,-0.6274,-0.1641,-0.3647
12/17/2014 11:08:21.569,-0.665,-0.3677,-0.4805
12/17/2014 11:08:21.579,-0.4375,-0.6045,0.2979
12/17/2014 11:08:21.589,0.6079,-0.6133,0.9727
12/17/2014 11:08:21.599,0.3452,-0.0068,0.4917
12/17/2014 11:08:21.609,-0.0342,0.2603,0.2998
12/17/2014 11:08:21.619,0.1221,-0.0249,0
12/17/2014 11:08:21.630,0.9712,-0.3213,0.1025
12/17/2014 11:08:21.640,2.3765,0.2202,1.3311
12/17/2014 11:08:21.650,2.5249,0.8716,1.0654
12/17/2014 11:08:21.660,2.7598,-0.1084,-0.27
12/17/2014 11:08:21.670,4.6128,-0.9268,-0.9648
12/17/2014 11:08:21.680,3.0938,-0.7256,-0.585
12/17/2014 11:08:21.690,2.0015,-0.3145,-0.062
12/17/2014 11:08:21.700,1.8164,0.1606,0.0107
12/17/2014 11:08:21.710,1.8608,0.1636,-0.0488
12/17/2014 11:08:21.720,1.707,0.27,-0.0605
12/17/2014 11:08:21.730,1.4331,0.3877,-0.0649
12/17/2014 11:08:21.740,1.5806,0.5757,-0.0527
12/17/2014 11:08:21.750,2.4521,0.8257,-0.3984
12/17/2014 11:08:21.759,3.1333,0.6572,-0.6006
12/17/2014 11:08:21.769,2.5381,-0.0068,-0.9229
12/17/2014 11:08:21.779,1.9126,-0.5034,-0.5723
12/17/2014 11:08:21.789,1.4253,-0.3936,-0.1509
12/17/2014 11:08:21.799,0.9697,0.272,0.2617
12/17/2014 11:08:21.809,0.6338,0.564,0.4082
12/17/2014 11:08:21.819,-0.1631,0.5342,0.0601
12/17/2014 11:08:21.829,-0.96,0.4785,-0.2314
12/17/2014 11:08:21.839,-1.5312,0.2451,-0.0879
12/17/2014 11:08:21.849,-1.6743,0.1221,0.2646
12/17/2014 11:08:21.859,-1.3267,0.127,0.3931
12/17/2014 11:08:21.869,-0.6177,0.0117,0.2954
12/17/2014 11:08:21.880,-0.3018,-0.2163,0.106
12/17/2014 11:08:21.890,-0.3472,-0.2715,-0.0098
12/17/2014 11:08:21.900,-0.2295,-0.2241,0.1426
12/17/2014 11:08:21.910,-0.0078,-0.0181,0.311
12/17/2014 11:08:21.920,0.1694,0.2856,0.2993
12/17/2014 11:08:21.930,0.0918,0.6567,0.0854
12/17/2014 11:08:21.940,0.2344,0.835,-0.0195
12/17/2014 11:08:21.950,0.3174,0.8032,-0.3027
12/17/2014 11:08:21.960,0.3896,0.9292,-0.4326
12/17/2014 11:08:21.970,1.083,1.4209,0.1812
12/17/2014 11:08:21.980,1.1768,1.9634,0.0659
12/17/2014 11:08:21.990,1.1582,1.5903,-0.3501
12/17/2014 11:08:22.000,2.0796,0.8428,-0.5947
12/17/2014 11:08:22.009,3.6919,0.4229,-0.6055
12/17/2014 11:08:22.019,5.2759,0.2769,-0.6152
12/17/2014 11:08:22.029,4.2729,0.2627,0.0698
12/17/2014 11:08:22.039,3.9238,-0.7793,0.0859
12/17/2014 11:08:22.049,3.9722,-1.4268,-0.1523
12/17/2014 11:08:22.059,3.2017,-1.4463,-0.8281
12/17/2014 11:08:22.069,1.8652,-1.2314,-0.4277
12/17/2014 11:08:22.079,1.5044,-0.8496,0.1196
12/17/2014 11:08:22.089,1.5205,-0.1606,0.1533
12/17/2014 11:08:22.099,1.2607,0.2251,0.0376
12/17/2014 11:08:22.109,0.981,0.811,-0.1934
12/17/2014 11:08:22.119,0.0093,1.106,-0.0156
12/17/2014 11:08:22.130,-0.5908,0.7939,0.2344
12/17/2014 11:08:22.140,-1.0732,0.8569,0.3218
12/17/2014 11:08:22.150,-1.5137,1.0464,0.207
12/17/2014 11:08:22.160,-1.5137,0.8433,0.2188
12/17/2014 11:08:22.170,-1.1279,0.5615,0.1821
12/17/2014 11:08:22.180,-1.0244,0.5312,-0.1338
12/17/2014 11:08:22.190,-1.082,0.3281,-0.4355
12/17/2014 11:08:22.200,-0.7334,-0.167,-0.4346
12/17/2014 11:08:22.210,-0.6133,-0.7236,-0.248
12/17/2014 11:08:22.220,0.3267,-0.7251,0.1069
12/17/2014 11:08:22.230,0.3525,-0.5059,0.5605
12/17/2014 11:08:22.240,0.1465,-0.0889,0.2656
12/17/2014 11:08:22.250,-0.1992,0.0186,0.1274
12/17/2014 11:08:22.259,-0.103,-0.2603,-0.2822
12/17/2014 11:08:22.269,0.7144,-0.5376,-0.1484
12/17/2014 11:08:22.279,1.8574,-0.3521,1.1509
12/17/2014 11:08:22.289,2.605,1.0234,1.9756
12/17/2014 11:08:22.299,2.2041,0.8462,0.3096
12/17/2014 11:08:22.309,4.1416,1.2173,-0.9365
12/17/2014 11:08:22.319,3.5176,-0.186,-0.7617
12/17/2014 11:08:22.329,2.5635,0.0376,-0.0811
12/17/2014 11:08:22.339,2.4092,-0.0737,-0.0254
12/17/2014 11:08:22.349,2.2231,0.1543,-0.0879
12/17/2014 11:08:22.359,2.1006,0.0933,0.2021
12/17/2014 11:08:22.369,1.4248,0.0371,0.2017
12/17/2014 11:08:22.380,1.4585,-0.188,0.2661
12/17/2014 11:08:22.390,1.7451,-0.3667,0.0815
12/17/2014 11:08:22.400,3.4062,-0.1826,-0.229
12/17/2014 11:08:22.410,3.2095,-0.377,-0.6221
12/17/2014 11:08:22.420,2.3018,-0.3506,-0.7134
12/17/2014 11:08:22.430,1.7217,-0.1729,-0.4351
12/17/2014 11:08:22.440,1.127,0.5,-0.1548
12/17/2014 11:08:22.450,0.5566,0.5698,-0.0405
12/17/2014 11:08:22.460,-0.4473,0.4097,-0.0898
12/17/2014 11:08:22.470,-1.2144,0.2886,0.1846
12/17/2014 11:08:22.480,-1.7881,0.0522,0.542
12/17/2014 11:08:22.490,-1.751,0.1802,0.4204
12/17/2014 11:08:22.500,-1.187,0.2144,0.2905
12/17/2014 11:08:22.509,-0.5552,-0.0127,0.0952
12/17/2014 11:08:22.519,-0.457,-0.2021,-0.0825
12/17/2014 11:08:22.529,-0.5078,-0.2124,-0.0215
12/17/2014 11:08:22.539,-0.2314,-0.0542,0.2334
12/17/2014 11:08:22.549,0.0869,0.1699,0.2881
12/17/2014 11:08:22.559,0.2725,0.4536,0.1709
12/17/2014 11:08:22.569,0.2896,0.6416,0.0264
12/17/2014 11:08:22.579,0.3423,0.7505,-0.082
12/17/2014 11:08:22.589,0.2861,0.7002,-0.2617
12/17/2014 11:08:22.599,0.2407,0.6138,-0.3691
12/17/2014 11:08:22.609,0.373,0.9468,-0.2686
12/17/2014 11:08:22.619,1.0742,1.6226,0.6792
12/17/2014 11:08:22.630,0.8794,2.0352,0.6099
12/17/2014 11:08:22.640,0.7925,2.0024,-0.2065
12/17/2014 11:08:22.650,1.7803,1.4287,-0.9336
12/17/2014 11:08:22.660,3.7432,0.5962,-0.9019
12/17/2014 11:08:22.670,5.3169,0.1558,-0.6138
12/17/2014 11:08:22.680,4.5098,-0.0728,0.0776
12/17/2014 11:08:22.690,4.3472,-1.1826,0.3535
12/17/2014 11:08:22.700,3.9771,-1.8257,-0.4224
12/17/2014 11:08:22.710,2.6992,-1.8018,-0.875
12/17/2014 11:08:22.720,2.418,-1.7622,-0.0938
12/17/2014 11:08:22.730,2.4312,-1.2837,0.1353
12/17/2014 11:08:22.740,1.5737,-0.1284,-0.1812
12/17/2014 11:08:22.750,1.2759,0.4512,0.0024
12/17/2014 11:08:22.759,0.5571,0.8896,-0.1182
12/17/2014 11:08:22.769,-0.3994,0.7515,-0.4028
12/17/2014 11:08:22.779,-0.7573,0.793,0.0166
12/17/2014 11:08:22.789,-1.0693,1.0894,0.4946
12/17/2014 11:08:22.799,-1.6968,0.8589,0.6714
12/17/2014 11:08:22.809,-1.7358,0.7339,0.2822
12/17/2014 11:08:22.819,-1.4307,0.5386,0.0278
12/17/2014 11:08:22.829,-1.1758,0.605,-0.3042
12/17/2014 11:08:22.839,-1.1133,0.4805,-0.5029
12/17/2014 11:08:22.849,-0.6694,0.0317,-0.4507
12/17/2014 11:08:22.859,-0.77,-0.3545,-0.3228
12/17/2014 11:08:22.869,0.2568,-0.7354,0.3096
12/17/2014 11:08:22.880,0.6401,-0.5732,0.5708
12/17/2014 11:08:22.890,0.3604,-0.0547,0.5742
12/17/2014 11:08:22.900,0.1782,0.4092,0.1279
12/17/2014 11:08:22.910,-0.1143,0.291,0.2173
12/17/2014 11:08:22.920,0.2119,-0.1294,-0.4067
12/17/2014 11:08:22.930,1.3838,-0.4126,0.499
12/17/2014 11:08:22.940,2.6924,0.5439,1.0806
12/17/2014 11:08:22.950,2.3232,0.6387,0.6826
12/17/2014 11:08:22.960,2.6333,0.1411,-0.7661
12/17/2014 11:08:22.970,4.8711,-0.6787,-1.106
12/17/2014 11:08:22.980,3.0415,-0.4082,-0.5674
12/17/2014 11:08:22.990,2.1104,-0.4512,-0.0771
12/17/2014 11:08:23.000,1.9707,-0.1289,-0.0488
12/17/2014 11:08:23.009,1.8013,0.0576,0.2041
12/17/2014 11:08:23.019,1.4282,0.2646,-0.0205
12/17/2014 11:08:23.029,1.582,0.3315,0.0356
12/17/2014 11:08:23.039,2.2974,0.1143,-0.2271
12/17/2014 11:08:23.049,3.7905,-0.0684,-0.8325
12/17/2014 11:08:23.059,3.0718,-0.5557,-1.0601
12/17/2014 11:08:23.069,1.9648,-0.5972,-0.8955
12/17/2014 11:08:23.079,1.5356,-0.1592,-0.3462
12/17/2014 11:08:23.089,1.2373,0.1367,0.1372
12/17/2014 11:08:23.099,0.7197,0.2773,0.5029
12/17/2014 11:08:23.109,-0.1846,0.4307,0.2759
12/17/2014 11:08:23.119,-1.0425,0.4556,-0.0562
12/17/2014 11:08:23.130,-1.4346,0.4517,-0.0684
12/17/2014 11:08:23.140,-1.7607,0.4404,0.127
12/17/2014 11:08:23.150,-1.3267,0.5034,0.3203
12/17/2014 11:08:23.160,-0.6836,0.2896,0.1826
12/17/2014 11:08:23.170,-0.4707,0.02,0.0273
12/17/2014 11:08:23.180,-0.5347,-0.0806,0.0166
12/17/2014 11:08:23.190,-0.3994,-0.0938,0.2402
12/17/2014 11:08:23.200,-0.063,0.0493,0.4062
12/17/2014 11:08:23.210,0.1318,0.2231,0.4043
12/17/2014 11:08:23.220,0.0811,0.3794,0.2393
12/17/2014 11:08:23.230,0.0693,0.6177,0.0195
12/17/2014 11:08:23.240,0.2461,0.6274,-0.1724
12/17/2014 11:08:23.250,0.2275,0.5649,-0.3496
12/17/2014 11:08:23.259,0.4814,0.9707,-0.3604
12/17/2014 11:08:23.269,1.2983,1.4482,0.3618
12/17/2014 11:08:23.279,1.2764,1.7979,-0.0952
12/17/2014 11:08:23.289,1.5894,1.2842,-0.3296
12/17/2014 11:08:23.299,3.1313,0.4644,-0.4624
12/17/2014 11:08:23.309,5.1226,0.1104,-0.897
12/17/2014 11:08:23.319,5.6885,0.2021,-0.481
12/17/2014 11:08:23.329,4.7349,-0.6899,-0.1479
12/17/2014 11:08:23.339,4.3447,-0.9546,-0.2812
12/17/2014 11:08:23.349,3.0239,-0.7944,-1.0229
12/17/2014 11:08:23.359,2.0342,-1.0889,-0.8364
12/17/2014 11:08:23.369,1.9883,-1.0049,0.1113
12/17/2014 11:08:23.380,1.9058,-0.3672,0.2793
12/17/2014 11:08:23.390,1.543,-0.1211,0.0908
12/17/2014 11:08:23.400,0.9062,0.8335,-0.4277
12/17/2014 11:08:23.410,-0.1099,0.835,-0.335
12/17/2014 11:08:23.420,-0.5156,0.853,0.1216
12/17/2014 11:08:23.430,-0.9307,0.7129,0.4912
12/17/2014 11:08:23.440,-1.54,0.897,0.5117
12/17/2014 11:08:23.450,-1.7207,0.7261,0.1929
12/17/2014 11:08:23.460,-1.4058,0.415,0.0601
12/17/2014 11:08:23.470,-1.0576,0.3135,-0.0815
12/17/2014 11:08:23.480,-0.9575,0.3174,-0.1826
12/17/2014 11:08:23.490,-0.9517,0.27,-0.394
12/17/2014 11:08:23.500,-0.5513,-0.2563,-0.209
12/17/2014 11:08:23.509,-0.1523,-0.4399,-0.186
12/17/2014 11:08:23.519,-0.2837,-0.3496,0.0508
12/17/2014 11:08:23.529,0.5005,-0.1201,0.6646
12/17/2014 11:08:23.539,0.7314,0.1387,0.5845
12/17/2014 11:08:23.549,0.3369,0.4102,0.0171
12/17/2014 11:08:23.559,-0.0396,0.2202,0.1333
12/17/2014 11:08:23.569,0.2207,-0.2061,-0.354
12/17/2014 11:08:23.579,1.2334,-0.5757,0.2031
12/17/2014 11:08:23.589,2.395,0.0698,1.3188
12/17/2014 11:08:23.599,2.3271,0.7983,1.3726
12/17/2014 11:08:23.609,2.1958,0.2607,-0.4351
12/17/2014 11:08:23.619,2.979,-0.4731,-1.4165
12/17/2014 11:08:23.630,4.125,-0.8384,-0.5752
12/17/2014 11:08:23.640,2.4751,-0.4653,-0.335
12/17/2014 11:08:23.650,2.0552,-0.1738,-0.292
12/17/2014 11:08:23.660,1.792,-0.0659,-0.021
12/17/2014 11:08:23.670,1.5449,0.3101,-0.0093
12/17/2014 11:08:23.680,1.5112,0.2407,-0.0732
12/17/2014 11:08:23.690,2.0361,-0.1797,-0.3345
12/17/2014 11:08:23.700,3.8379,0.1064,-0.6035
12/17/2014 11:08:23.710,2.8247,-0.0181,-0.9019
12/17/2014 11:08:23.720,1.9141,-0.1646,-0.8584
12/17/2014 11:08:23.730,1.4683,0.2422,-0.2646
12/17/2014 11:08:23.740,0.9292,0.3203,0.1968
12/17/2014 11:08:23.750,0.2598,0.4507,0.2397
12/17/2014 11:08:23.759,-0.5703,0.5093,-0.083
12/17/2014 11:08:23.769,-1.1865,0.4468,-0.1904
12/17/2014 11:08:23.779,-1.6128,0.3604,0.0645
12/17/2014 11:08:23.789,-1.4751,0.3936,0.3672
12/17/2014 11:08:23.799,-1.0488,0.2998,0.4995
12/17/2014 11:08:23.809,-0.6777,0.0518,0.3755
12/17/2014 11:08:23.819,-0.6631,-0.0107,0.1348
12/17/2014 11:08:23.829,-0.6499,0.0757,0.0718
12/17/2014 11:08:23.839,-0.4004,0.1919,0.1646
12/17/2014 11:08:23.849,-0.1738,0.356,0.1953
12/17/2014 11:08:23.859,-0.0366,0.5049,0.1406
12/17/2014 11:08:23.869,0.103,0.6372,-0.0015
12/17/2014 11:08:23.880,0.3076,0.6494,-0.2656
12/17/2014 11:08:23.890,0.3682,0.5923,-0.5884
12/17/2014 11:08:23.900,0.8447,1.0732,-0.2642
12/17/2014 11:08:23.910,1.5508,1.5903,0.3652
12/17/2014 11:08:23.920,1.1284,1.3716,-0.1333
12/17/2014 11:08:23.930,1.9238,0.4658,-0.5654
12/17/2014 11:08:23.940,3.6377,-0.646,-0.606
12/17/2014 11:08:23.950,6.0537,-0.7563,-0.4629
12/17/2014 11:08:23.960,6.1353,-0.9424,-0.5352
12/17/2014 11:08:23.970,5.7661,-1.3315,-0.5347
12/17/2014 11:08:23.980,3.46,-1,-1.1299
12/17/2014 11:08:23.990,1.6279,-0.8076,-0.8369
12/17/2014 11:08:24.000,1.4663,-0.3911,0.1836
12/17/2014 11:08:24.009,1.3862,0.0186,0.2964
12/17/2014 11:08:24.019,1.4771,0.2769,0.1821
12/17/2014 11:08:24.029,1.0322,0.9155,-0.001
12/17/2014 11:08:24.039,-0.0322,0.9331,-0.105
12/17/2014 11:08:24.049,-0.5371,1.0063,0.0068
12/17/2014 11:08:24.059,-0.6904,0.6777,0.3623
12/17/2014 11:08:24.069,-0.8989,1.0098,0.208
12/17/2014 11:08:24.079,-1.0884,0.9146,0.0098
12/17/2014 11:08:24.089,-1.1201,0.5557,0.0747
12/17/2014 11:08:24.099,-1.1909,0.2012,-0.0249
12/17/2014 11:08:24.109,-1.2461,0.3379,-0.2202
12/17/2014 11:08:24.119,-1.1909,0.0581,-0.2354
12/17/2014 11:08:24.130,-0.7212,-0.2588,-0.1162
12/17/2014 11:08:24.140,-0.2954,-0.2778,-0.0391
12/17/2014 11:08:24.150,-0.3838,-0.127,0.2773
12/17/2014 11:08:24.160,0.1021,-0.0029,0.7646
12/17/2014 11:08:24.170,0.1196,0.3369,0.2109
12/17/2014 11:08:24.180,0.0723,0.5269,0.1396
12/17/2014 11:08:24.190,0.6792,0.0474,-0.3276
12/17/2014 11:08:24.200,1.957,0.0054,0.7915
12/17/2014 11:08:24.210,2.6362,0.8018,0.7168
12/17/2014 11:08:24.220,2.0522,0.5864,-0.1089
12/17/2014 11:08:24.230,2.7324,-0.0796,-0.7778
12/17/2014 11:08:24.240,3.5649,-1.1572,-0.2446
12/17/2014 11:08:24.250,2.2749,-0.7446,0.2197
12/17/2014 11:08:24.259,1.9736,-0.3403,0.3809
12/17/2014 11:08:24.269,2.1284,-0.1177,-0.0269
12/17/2014 11:08:24.279,2.1519,0.1733,-0.126
12/17/2014 11:08:24.289,1.6367,0.4639,-0.334
12/17/2014 11:08:24.299,1.8218,0.5723,-0.2505
12/17/2014 11:08:24.309,2.5991,0.2329,-0.4072
12/17/2014 11:08:24.319,3.8315,-0.3354,-0.8218
12/17/2014 11:08:24.329,3.292,-0.9229,-0.9443
12/17/2014 11:08:24.339,2.3027,-1.1582,-0.5674
12/17/2014 11:08:24.349,1.5664,-0.5078,-0.2749
12/17/2014 11:08:24.359,1.0801,-0.0747,0.0034
12/17/2014 11:08:24.369,0.5024,0.2891,0.1851
12/17/2014 11:08:24.380,-0.1738,0.6172,0.1172
12/17/2014 11:08:24.390,-0.8008,0.8257,-0.0552
12/17/2014 11:08:24.400,-1.4438,0.7793,-0.1729
12/17/2014 11:08:24.410,-1.6504,0.6177,-0.0239
12/17/2014 11:08:24.420,-1.4209,0.4199,0.1255
12/17/2014 11:08:24.430,-0.6675,0.1714,0.1685
12/17/2014 11:08:24.440,-0.2222,-0.064,0.1851
12/17/2014 11:08:24.450,-0.2563,-0.1362,0.1812
12/17/2014 11:08:24.460,-0.2231,-0.1357,0.2729
12/17/2014 11:08:24.470,-0.0806,-0.0454,0.397
12/17/2014 11:08:24.480,0.0347,0.1641,0.2783
12/17/2014 11:08:24.490,0.0322,0.293,0.2124
12/17/2014 11:08:24.500,0.0483,0.4116,0.1108
12/17/2014 11:08:24.509,0.1938,0.6362,-0.0537
12/17/2014 11:08:24.519,0.2148,0.5703,-0.3789
12/17/2014 11:08:24.529,0.1685,0.8623,-0.5469
12/17/2014 11:08:24.539,0.9136,1.5034,0.3477
12/17/2014 11:08:24.549,0.9463,1.8682,0.2095
12/17/2014 11:08:24.559,0.7236,1.4468,-0.1626
12/17/2014 11:08:24.569,1.7979,0.9878,-0.6533
12/17/2014 11:08:24.579,3.1807,0.8374,-0.7944
12/17/2014 11:08:24.589,5.3926,0.8311,-0.4531
12/17/2014 11:08:24.599,5.2563,0.5508,-0.1006
12/17/2014 11:08:24.609,3.9355,-0.4102,0.0361
12/17/2014 11:08:24.619,4.0874,-1.3857,-0.0093
12/17/2014 11:08:24.630,3.207,-1.3623,-0.8306
12/17/2014 11:08:24.640,2.2109,-1.3325,-0.5435
12/17/2014 11:08:24.650,2.0283,-1.1284,0.2012
12/17/2014 11:08:24.660,1.728,-0.4448,0.1045
12/17/2014 11:08:24.670,1.583,-0.0684,0.0171
12/17/2014 11:08:24.680,1.1084,0.6538,-0.1758
12/17/2014 11:08:24.690,-0.0859,0.4688,-0.3721
12/17/2014 11:08:24.700,-0.7324,0.6343,-0.0439
12/17/2014 11:08:24.710,-1.1821,1.1113,0.3745
12/17/2014 11:08:24.720,-1.7036,0.9277,0.4399
12/17/2014 11:08:24.730,-1.7007,0.7866,0.168
12/17/2014 11:08:24.740,-1.2021,0.6045,0.0068
12/17/2014 11:08:24.750,-0.9966,0.5215,-0.1123
12/17/2014 11:08:24.759,-0.9844,0.5205,-0.3398
12/17/2014 11:08:24.769,-0.8267,0.2607,-0.3882
12/17/2014 11:08:24.779,-0.3633,-0.2104,-0.2148
12/17/2014 11:08:24.789,-0.0181,-0.3691,-0.0352
12/17/2014 11:08:24.799,0.042,-0.3374,0.249
12/17/2014 11:08:24.809,0.2837,-0.229,0.6621
12/17/2014 11:08:24.819,0.4155,0.1123,0.481
12/17/2014 11:08:24.829,0.0542,0.3184,0.0522
12/17/2014 11:08:24.839,-0.0215,0.1753,-0.0205
12/17/2014 11:08:24.849,0.5767,-0.3721,-0.7339
12/17/2014 11:08:24.859,1.4443,-0.9019,0.2573
12/17/2014 11:08:24.869,2.4951,0.1289,1.6377
12/17/2014 11:08:24.880,2.0015,0.6416,1.8394
12/17/2014 11:08:24.890,1.9834,0.6187,-0.5166
12/17/2014 11:08:24.900,3.0254,-0.3003,-1.0933
12/17/2014 11:08:24.910,4.3496,-0.6172,-0.4082
12/17/2014 11:08:24.920,3.0332,-0.2876,-0.3896
12/17/2014 11:08:24.930,2.3745,-0.2563,-0.3486
12/17/2014 11:08:24.940,1.8696,-0.1758,-0.0239
12/17/2014 11:08:24.950,1.8496,-0.0068,0.1606
12/17/2014 11:08:24.960,2.2217,-0.2456,0.0742
12/17/2014 11:08:24.970,2.604,-0.5391,-0.3413
12/17/2014 11:08:24.980,3.5718,-0.4585,-0.5962
12/17/2014 11:08:24.990,2.4971,-0.3188,-0.9268
12/17/2014 11:08:25.000,1.7217,-0.1162,-0.8911
12/17/2014 11:08:25.009,1.4961,0.3071,-0.1895
12/17/2014 11:08:25.019,0.9526,0.7041,0.0542
12/17/2014 11:08:25.029,0.0923,0.9443,-0.0894
12/17/2014 11:08:25.039,-0.8794,0.9297,-0.3555
12/17/2014 11:08:25.049,-1.4805,0.6489,-0.2358
12/17/2014 11:08:25.059,-1.7798,0.291,0.2607
12/17/2014 11:08:25.069,-1.5493,0.3276,0.6709
12/17/2014 11:08:25.079,-0.9966,0.145,0.562
12/17/2014 11:08:25.089,-0.5386,-0.1436,0.2676
12/17/2014 11:08:25.099,-0.5205,-0.2373,0.0591
12/17/2014 11:08:25.109,-0.4302,-0.23,0.1562
12/17/2014 11:08:25.119,-0.1514,-0.1313,0.2524
12/17/2014 11:08:25.130,0.1157,0.085,0.2603
12/17/2014 11:08:25.140,0.2026,0.2539,0.1641
12/17/2014 11:08:25.150,0.2095,0.3765,-0.0576
12/17/2014 11:08:25.160,0.2646,0.521,-0.3101
12/17/2014 11:08:25.170,0.2861,0.4106,-0.3945
12/17/2014 11:08:25.180,0.2896,0.5142,-0.5132
12/17/2014 11:08:25.190,0.7354,1.1836,-0.1792
12/17/2014 11:08:25.200,1.3115,1.7329,0.5518
12/17/2014 11:08:25.210,1.0771,2.0425,0.0264
12/17/2014 11:08:25.220,1.2407,1.5215,-0.6113
12/17/2014 11:08:25.230,2.46,0.5688,-0.939
12/17/2014 11:08:25.240,4.9185,0.2319,-0.4834
12/17/2014 11:08:25.250,5.5942,0.1562,0.2578
12/17/2014 11:08:25.259,5.0952,-1.521,-0.1533
12/17/2014 11:08:25.269,4.792,-1.0654,-0.4297
12/17/2014 11:08:25.279,2.647,-1.3369,-1.1885
12/17/2014 11:08:25.289,1.4717,-1.04,-0.4619
12/17/2014 11:08:25.299,1.3296,-0.5405,0.2798
12/17/2014 11:08:25.309,1.2241,-0.1606,0.4043
12/17/2014 11:08:25.319,1.4897,0.0645,0.1538
12/17/2014 11:08:25.329,0.6523,0.6719,-0.1162
12/17/2014 11:08:25.339,-0.1797,0.6934,-0.2964
12/17/2014 11:08:25.349,-0.7046,0.7227,-0.0381
12/17/2014 11:08:25.359,-1.0688,0.9551,0.1665
12/17/2014 11:08:25.369,-1.3237,0.9829,0.2988
12/17/2014 11:08:25.380,-1.1509,0.688,0.3149
12/17/2014 11:08:25.390,-1.1816,0.4951,0.2129
12/17/2014 11:08:25.400,-1.0557,0.6274,-0.0068
12/17/2014 11:08:25.410,-1.082,0.5293,-0.2871
12/17/2014 11:08:25.420,-0.7979,-0.0142,-0.2388
12/17/2014 11:08:25.430,-0.2739,-0.3071,-0.084
12/17/2014 11:08:25.440,0.1333,-0.54,0.312
12/17/2014 11:08:25.450,-0.2856,-0.3198,0.2065
12/17/2014 11:08:25.460,0.0059,0.1528,0.1792
12/17/2014 11:08:25.470,0.0967,0.2627,0.4082
12/17/2014 11:08:25.480,0.1465,-0.2041,-0.1489
12/17/2014 11:08:25.490,0.9473,-0.499,0.3667
12/17/2014 11:08:25.500,2.3804,0.3633,0.8647
12/17/2014 11:08:25.509,2.2681,0.5127,0.6787
12/17/2014 11:08:25.519,2.8423,0.2007,-0.4487
12/17/2014 11:08:25.529,3.9438,-0.6802,-0.7778
12/17/2014 11:08:25.539,2.7642,-0.6812,-0.1548
12/17/2014 11:08:25.549,2.2583,-0.3428,0.0215
12/17/2014 11:08:25.559,2.2617,-0.145,-0.2505
12/17/2014 11:08:25.569,2.2437,0.1323,-0.0742
12/17/2014 11:08:25.579,1.8892,0.3628,-0.2529
12/17/2014 11:08:25.589,1.8267,0.356,-0.2603
12/17/2014 11:08:25.599,2.5732,0.0591,-0.3076
12/17/2014 11:08:25.609,3.584,-0.208,-0.5874
12/17/2014 11:08:25.619,3.0996,-0.811,-0.8213
12/17/2014 11:08:25.630,2.1089,-0.9385,-0.7812
12/17/2014 11:08:25.640,1.4346,-0.4453,-0.4717
12/17/2014 11:08:25.650,1.4736,-0.043,0.1885
12/17/2014 11:08:25.660,0.8931,0.1616,0.2754
12/17/2014 11:08:25.670,0.0591,0.3477,0.1924
12/17/2014 11:08:25.680,-0.8169,0.689,0.0957
12/17/2014 11:08:25.690,-1.4346,0.5767,-0.0679
12/17/2014 11:08:25.700,-1.8208,0.501,-0.0312
12/17/2014 11:08:25.710,-1.687,0.4448,0.2852
12/17/2014 11:08:25.720,-0.8662,0.249,0.3291
12/17/2014 11:08:25.730,-0.3193,0.019,0.1846
12/17/2014 11:08:25.740,-0.251,-0.1318,0.0708
12/17/2014 11:08:25.750,-0.2227,-0.0884,0.2002
12/17/2014 11:08:25.759,-0.0537,-0.0161,0.3379
12/17/2014 11:08:25.769,0.0259,0.167,0.29
12/17/2014 11:08:25.779,-0.0122,0.3203,0.2256
12/17/2014 11:08:25.789,0.0288,0.5122,0.019
12/17/2014 11:08:25.799,0.1792,0.6548,-0.2759
12/17/2014 11:08:25.809,0.2603,0.6025,-0.4839
12/17/2014 11:08:25.819,0.2632,0.9219,-0.6392
12/17/2014 11:08:25.829,0.9136,1.5317,0.1519
12/17/2014 11:08:25.839,1.1597,2.1196,0.2988
12/17/2014 11:08:25.849,0.8955,2.0977,-0.3262
12/17/2014 11:08:25.859,1.7861,1.4868,-0.7778
12/17/2014 11:08:25.869,3.2734,0.6895,-0.8589
12/17/2014 11:08:25.880,5.3867,0.3818,-0.5596
12/17/2014 11:08:25.890,4.8662,0.2734,0.3926
12/17/2014 11:08:25.900,4.1772,-0.7656,0.0742
12/17/2014 11:08:25.910,4.249,-1.3647,-0.4321
12/17/2014 11:08:25.920,2.5962,-1.1162,-0.9644
12/17/2014 11:08:25.930,1.8975,-1.1099,-0.3428
12/17/2014 11:08:25.940,1.8203,-0.9473,0.2744
12/17/2014 11:08:25.950,1.457,-0.332,0.1157
12/17/2014 11:08:25.960,1.4805,0.1299,-0.0029
12/17/2014 11:08:25.970,0.4072,-0.0098,-0.0361
12/17/2014 11:08:25.980,-0.231,0.2334,-0.1855
12/17/2014 11:08:25.990,-0.6587,0.334,0.2476
12/17/2014 11:08:26.000,-1.106,0.8667,0.5615
12/17/2014 11:08:26.009,-1.4761,0.9058,0.4092
12/17/2014 11:08:26.019,-1.3589,0.791,0.251
12/17/2014 11:08:26.029,-1.0337,0.6621,0.0425
